Pacote,Tempo_ms,AccX,AccY,AccZ,GyroX,GyroY,GyroZ,Temp_MPU(C),Temp_BMP(C),Pressao(hPa),Altitude(m),Temp_SHT(C),Umidade_SHT(%),Temp_DS18B20(C)
1,2660,-1.31,-0.82,10.94,-0.00,-0.00,-0.03,28.89,27.85,974.47,328.01,27.54,53.18,27.56
2,3399,-1.31,-0.80,10.92,-0.00,-0.07,-0.07,29.01,27.80,974.40,328.55,27.54,53.11,27.56
3,4138,-1.33,-0.81,10.93,-0.00,0.00,-0.03,29.12,27.80,974.41,328.49,27.53,53.13,27.56
4,4877,-1.34,-0.81,10.93,0.00,-0.00,-0.03,29.18,27.80,974.42,328.44,27.53,53.14,27.50
5,5616,-1.35,-0.79,10.92,-0.00,-0.00,-0.03,29.22,27.80,974.42,328.39,27.53,53.16,27.56
6,6355,-1.34,-0.80,10.95,-0.00,-0.00,-0.03,29.27,27.80,974.43,328.35,27.56,53.18,27.56
7,7094,-1.34,-0.79,10.96,-0.00,-0.00,-0.03,29.29,27.80,974.44,328.26,27.53,53.19,27.56
8,7833,-1.32,-0.80,10.96,-0.00,0.00,-0.03,29.31,27.80,974.44,328.23,27.52,53.16,27.56
9,8572,-1.32,-0.80,10.91,-0.00,0.00,-0.03,29.34,27.80,974.45,328.19,27.53,53.16,27.56
10,9311,-1.33,-0.79,10.93,-0.00,0.00,-0.03,29.35,27.80,974.45,328.17,27.53,53.15,27.56
11,10050,-1.33,-0.79,10.95,-0.00,-0.00,-0.03,29.38,27.80,974.45,328.18,27.54,53.13,27.56
12,10789,-1.34,-0.82,10.94,-0.00,-0.00,-0.03,29.41,27.80,974.45,328.15,27.52,53.15,27.56
13,11528,-1.35,-0.81,10.96,-0.00,0.00,-0.03,29.41,27.80,974.45,328.12,27.52,53.16,27.56
14,12267,-1.34,-0.80,10.93,-0.00,0.00,-0.03,29.43,27.80,974.46,328.09,27.54,53.15,27.56
15,13006,-1.33,-0.80,10.97,-0.00,0.00,-0.03,29.43,27.80,974.47,328.03,27.52,53.15,27.56
16,13745,-1.32,-0.79,10.93,-0.00,-0.00,-0.03,29.46,27.80,974.47,328.02,27.52,53.15,27.62
17,14484,-1.34,-0.81,10.94,-0.00,0.00,-0.03,29.48,27.80,974.47,328.01,27.53,53.16,27.56
18,15223,-1.32,-0.81,10.93,-0.00,0.00,-0.03,29.48,27.80,974.47,327.99,27.54,53.17,27.56
19,15962,-1.31,-0.79,10.94,-0.00,0.00,-0.03,29.51,27.79,974.47,327.98,27.52,53.15,27.56
20,16701,-1.35,-0.80,10.94,-0.00,-0.00,-0.03,29.51,27.79,974.47,327.97,27.52,53.14,27.56
21,17440,-1.34,-0.79,10.97,-0.00,-0.00,-0.03,29.52,27.79,974.47,327.98,27.50,53.15,27.56
22,18179,-1.32,-0.79,10.93,-0.00,-0.00,-0.03,29.55,27.79,974.47,327.98,27.52,53.18,27.56
23,18918,-1.34,-0.80,10.97,-0.00,0.00,-0.03,29.56,27.79,974.47,327.98,27.50,53.15,27.56
24,19657,-1.33,-0.80,10.95,-0.00,0.00,-0.03,29.55,27.79,974.47,328.00,27.49,53.19,27.56
25,20396,-1.33,-0.81,10.93,-0.00,0.00,-0.03,29.55,27.79,974.47,327.98,27.50,53.16,27.56
26,21135,-1.34,-0.81,10.97,-0.00,0.00,-0.03,29.58,27.79,974.47,327.98,27.47,53.13,27.56
27,21874,-1.36,-0.80,10.93,-0.00,0.00,-0.03,29.57,27.79,974.47,327.98,27.49,53.13,27.56
28,22613,-1.32,-0.80,10.94,-0.00,-0.00,-0.03,29.57,27.79,974.47,328.00,27.49,53.14,27.56
29,23352,-1.35,-0.78,10.97,-0.00,0.00,-0.03,29.59,27.79,974.47,327.99,27.49,53.12,27.62
30,24091,-1.32,-0.82,10.96,-0.00,0.00,-0.03,29.58,27.79,974.48,327.94,27.47,53.14,27.62
31,24879,-2.30,22.17,8.27,-0.32,-3.82,0.00,84.81,27.79,974.47,327.95,27.47,53.13,27.56
32,25618,-1.33,-0.80,10.95,-0.00,-0.00,-0.12,29.61,27.79,974.48,327.93,27.47,53.16,27.62
33,26357,-1.34,-0.80,10.94,-0.00,-0.27,-0.27,29.62,27.79,974.47,327.96,27.46,53.17,27.56
34,27097,-1.33,-0.80,10.93,-0.00,0.00,-0.12,29.64,27.79,974.48,327.93,27.46,53.12,27.62
35,27836,-1.34,-0.80,10.94,-0.00,0.00,-0.03,29.64,27.79,974.48,327.93,27.47,53.18,27.56
36,28575,-1.36,-0.79,10.97,-0.00,0.00,-0.03,29.65,27.79,974.48,327.93,27.46,53.14,27.56
37,29314,-1.32,-0.80,10.94,-0.00,-0.00,-0.03,29.65,27.79,974.48,327.92,27.46,53.14,27.56
38,30104,-2.63,-1.58,21.95,-0.00,0.00,-0.03,29.67,27.79,974.48,327.92,27.46,53.12,27.56
39,30843,-1.33,-0.79,10.94,-0.00,0.00,-0.03,29.68,27.79,974.48,327.92,27.47,53.14,27.56
40,31582,-1.33,-0.80,10.97,-0.00,0.00,-0.00,29.67,27.79,974.48,327.93,27.47,53.12,27.56
41,32321,-1.34,-0.81,10.94,-0.00,-0.00,-0.03,29.70,27.79,974.48,327.92,27.47,53.12,27.56
42,33060,-1.31,-0.79,10.96,-0.00,-0.07,-0.07,29.70,27.79,974.48,327.90,27.47,53.12,27.56
43,33799,-1.33,-0.80,10.92,-0.00,0.00,-0.03,29.69,27.79,974.48,327.94,27.47,53.17,27.56
44,34538,-1.33,-0.81,10.95,-0.00,0.00,-0.03,29.72,27.79,974.47,327.95,27.47,53.13,27.56
45,35277,-1.34,-0.80,10.94,0.00,-0.00,-0.03,29.71,27.79,974.48,327.92,27.46,53.15,27.62
46,36067,-2.70,-1.61,21.87,-0.00,0.00,-0.03,29.73,27.79,974.48,327.92,27.47,53.14,27.56
47,36806,-1.33,-0.79,10.98,-0.00,0.00,-0.03,29.73,27.79,974.48,327.92,27.46,53.13,27.56
48,37545,-1.34,-0.80,10.96,-0.01,0.00,-0.12,29.75,27.79,974.47,327.97,27.47,53.14,27.62
49,38284,-1.32,-0.79,10.93,-0.07,-0.07,-0.07,35.77,27.79,974.47,327.98,27.47,53.12,27.56
50,39023,-1.35,-0.81,10.94,-0.00,-0.00,-0.03,29.76,27.79,974.47,327.97,27.46,53.14,27.56
51,39762,-1.32,-0.81,10.95,-0.00,0.00,-0.03,29.77,27.79,974.47,327.98,27.47,53.12,27.56
52,40501,-1.33,-0.80,10.96,-0.00,-0.00,-0.03,29.74,27.79,974.47,328.00,27.47,53.15,27.62
53,41290,-2.67,-1.61,-1.24,-0.07,-0.07,-0.07,35.77,27.79,974.47,328.00,27.47,53.16,27.62
54,42029,-1.34,-0.81,10.94,-0.00,-0.00,-0.03,29.78,27.79,974.47,328.00,27.49,53.12,27.62
55,42768,-1.32,-0.79,10.95,-0.00,-0.00,-0.03,29.80,27.79,974.47,328.01,27.46,53.10,27.56
56,43507,-1.34,-0.81,10.95,-0.00,0.00,-0.03,29.81,27.79,974.47,328.00,27.47,53.09,27.56
57,44246,-1.36,-0.78,10.94,-0.00,-0.07,-0.07,29.80,27.79,974.47,328.01,27.46,53.14,27.62
58,44985,-1.33,-0.78,10.95,-0.00,0.00,-0.03,29.81,27.79,974.47,328.01,27.47,53.13,27.62
59,45724,-1.23,-0.62,-0.62,-0.07,-0.07,-0.07,35.77,27.79,974.47,328.03,27.46,53.12,27.56
60,46463,-1.33,-0.80,10.95,-0.00,0.00,-0.03,29.83,27.79,974.46,328.04,27.47,53.10,27.62
61,47202,-1.33,-0.80,10.97,-0.00,0.00,-0.03,29.82,27.79,974.46,328.04,27.49,53.12,27.62
62,47941,-1.34,-0.79,10.96,-0.00,0.00,-0.03,29.83,27.79,974.46,328.04,27.49,53.11,27.62
63,48680,-1.33,-0.80,10.94,-0.00,-0.00,-0.03,29.86,27.79,974.46,328.04,27.47,53.15,27.62
64,49419,-1.33,-0.79,10.93,-0.00,0.00,-0.03,29.83,27.79,974.46,328.04,27.46,53.14,27.62
65,50158,-1.33,-0.80,10.93,-0.00,-0.00,-0.03,29.85,27.79,974.46,328.04,27.47,53.13,27.62
66,50897,-1.31,-0.79,10.95,-0.00,-0.00,-0.07,29.85,27.79,974.47,328.00,27.49,53.15,27.62
67,51636,-1.34,-0.80,10.94,-0.00,0.00,-0.03,29.86,27.79,974.47,328.02,27.46,53.12,27.62
68,52375,-1.34,-0.80,10.92,-0.01,0.00,-0.12,29.88,27.79,974.47,328.02,27.49,53.12,27.62
69,53114,-1.32,-0.80,10.95,-0.00,-0.00,-0.03,29.87,27.79,974.47,328.03,27.46,53.12,27.56
70,53853,-1.33,-0.80,10.95,-0.00,0.00,-0.03,29.87,27.79,974.47,328.03,27.47,53.15,27.62
71,54592,-1.34,-0.83,10.94,-0.00,0.00,-0.03,29.89,27.79,974.46,328.05,27.46,53.12,27.56
72,55331,-1.33,-0.79,10.96,-0.00,0.00,-0.03,29.89,27.79,974.47,328.01,27.46,53.15,27.62
73,56070,-1.35,-0.80,10.95,-0.00,0.00,-0.03,29.89,27.79,974.47,328.03,27.49,53.12,27.56
74,56809,-1.34,-0.78,10.96,-0.00,0.00,-0.03,29.91,27.79,974.47,328.03,27.49,53.12,27.62
75,57548,-1.32,-0.79,10.96,-0.00,-0.00,-0.03,29.90,27.79,974.47,328.03,27.46,53.11,27.62
76,58338,-2.68,-1.60,21.91,-0.00,0.00,-0.03,29.89,27.79,974.47,328.03,27.47,53.16,27.62
77,59077,-1.34,-0.81,10.96,-0.00,-0.00,-0.03,29.93,27.79,974.46,328.04,27.45,53.12,27.62
78,59816,-1.32,-0.80,10.93,-0.00,0.00,-0.03,29.92,27.79,974.46,328.04,27.45,53.11,27.62
79,60555,-1.33,-0.80,10.96,-0.00,0.00,-0.03,29.94,27.79,974.46,328.04,27.47,53.12,27.62
80,61294,-1.33,-0.80,10.94,-0.00,0.00,-0.03,29.94,27.80,974.47,328.02,27.45,53.09,27.62
81,62033,-1.33,-0.78,10.95,-0.00,0.00,-0.03,29.94,27.80,974.47,328.02,27.47,53.14,27.62
82,62772,-1.33,-0.80,10.94,-0.00,0.00,-0.03,29.93,27.80,974.47,328.02,27.46,53.10,27.62
83,63511,-1.33,-0.80,10.95,-0.00,0.00,-0.03,29.95,27.80,974.47,328.02,27.47,53.12,27.56
84,64301,-2.63,-1.58,21.92,-0.00,0.00,-0.03,29.94,27.80,974.47,328.02,27.47,53.13,27.56
85,65040,-1.33,-0.80,10.95,-0.00,0.00,-0.03,29.94,27.80,974.47,328.01,27.45,53.08,27.56
86,65779,-1.35,-0.80,10.96,-0.00,0.00,-0.03,29.94,27.80,974.47,327.99,27.47,53.13,27.56
87,66518,-1.34,-0.79,10.95,-0.00,0.00,-0.03,29.97,27.80,974.47,327.98,27.49,53.11,27.56
88,67257,-1.34,-0.80,10.94,-0.00,-0.00,-0.03,29.95,27.80,974.47,327.96,27.46,53.12,27.56
89,67996,-1.34,-0.82,10.93,-0.00,-0.00,-0.07,29.95,27.80,974.47,327.98,27.47,53.10,27.62
90,68786,-2.66,-1.60,21.90,-0.00,0.00,-0.03,29.98,27.80,974.47,327.96,27.46,53.11,27.56
91,69525,-1.33,-0.80,10.95,-0.00,0.00,-0.03,29.96,27.80,974.47,327.95,27.46,53.09,27.56
92,70264,-1.33,-0.81,10.92,-0.00,-0.00,-0.03,29.98,27.80,974.48,327.92,27.46,53.08,27.62
93,71053,-1.32,-0.79,10.96,-0.01,0.00,-0.12,29.98,27.80,974.48,327.91,27.43,53.10,27.56
94,71792,-1.34,-0.82,10.98,0.00,0.00,-0.03,29.97,27.79,974.48,327.93,27.45,53.12,27.56
95,72531,-2.69,-1.61,21.93,-0.00,0.00,-0.03,30.00,27.79,974.48,327.91,27.43,53.12,27.56
96,73270,-1.34,-0.81,10.95,-0.00,0.00,-0.03,29.97,27.79,974.48,327.91,27.45,53.11,27.56
97,74009,-1.34,-0.79,10.98,-0.00,0.00,-0.03,29.98,27.79,974.48,327.90,27.43,53.10,27.56
98,74748,-1.32,-0.79,10.96,-0.00,0.00,-0.03,29.98,27.79,974.48,327.90,27.42,53.10,27.56
99,75487,-1.35,-0.80,10.95,-0.01,0.00,-0.11,29.97,27.79,974.48,327.92,27.43,53.13,27.56
100,76226,-1.34,-0.80,10.96,-0.00,0.00,-0.03,30.00,27.79,974.48,327.90,27.42,53.15,27.56
101,76965,-1.34,-0.80,10.99,-0.00,-0.00,-0.03,29.99,27.79,974.48,327.90,27.43,53.12,27.56
102,77704,-1.34,-0.79,10.95,-0.00,0.00,-0.03,29.98,27.79,974.48,327.92,27.43,53.12,27.56
103,78443,-1.32,-0.80,10.95,-0.00,0.00,-0.03,30.00,27.79,974.48,327.92,27.43,53.10,27.56
104,79182,-1.34,-0.80,10.96,-0.00,0.00,-0.03,30.01,27.79,974.48,327.89,27.42,53.10,27.56
105,79921,-1.33,-0.81,10.94,-0.00,0.00,-0.03,30.02,27.79,974.48,327.91,27.42,53.09,27.56
106,80660,-1.35,-0.81,10.96,-0.00,0.00,-0.03,30.01,27.79,974.48,327.94,27.42,53.09,27.56
107,81398,-1.34,-0.80,10.95,-0.00,0.00,-0.03,30.00,27.79,974.48,327.94,27.41,53.12,27.56
108,82137,-1.34,-0.80,10.95,-0.00,0.00,-0.03,30.00,27.79,974.48,327.92,27.41,53.12,27.56
109,82877,-1.36,-0.79,10.96,-0.00,0.00,-0.03,30.00,27.79,974.48,327.92,27.41,53.13,27.56
110,83616,-1.33,-0.79,10.96,-0.00,0.00,-0.03,30.01,27.78,974.48,327.92,27.41,53.12,27.56
111,84355,-1.34,-0.81,10.95,-0.00,0.00,-0.03,30.01,27.78,974.48,327.92,27.41,53.08,27.56
112,85094,-1.34,-0.79,11.00,-0.00,0.00,-0.03,30.01,27.78,974.48,327.93,27.39,53.13,27.56
113,85833,-1.33,-0.79,10.97,-0.00,0.00,-0.03,30.03,27.78,974.48,327.93,27.36,53.10,27.50
114,86572,-1.34,-0.82,10.93,-0.00,0.00,-0.03,30.02,27.78,974.48,327.95,27.38,53.08,27.56
115,87311,-1.33,-0.81,10.96,-0.00,0.00,-0.03,30.03,27.78,974.48,327.95,27.39,53.09,27.56
116,88050,-1.34,-0.79,10.94,-0.00,-0.00,-0.03,30.04,27.78,974.48,327.93,27.38,53.11,27.56
117,88789,-1.34,-0.80,10.96,-0.00,0.00,-0.03,30.04,27.78,974.48,327.92,27.36,53.09,27.56
118,89528,-1.35,-0.80,10.96,-0.00,0.00,-0.03,30.04,27.78,974.48,327.90,27.39,53.10,27.56
119,90266,-1.35,-0.80,-0.62,-0.07,-0.07,-0.07,35.77,27.78,974.48,327.92,27.39,53.07,27.56
120,91006,-1.34,-0.78,10.96,-0.00,0.00,-0.03,30.03,27.78,974.48,327.92,27.39,53.10,27.56
121,91745,-1.35,-0.79,10.94,-0.00,0.00,-0.03,30.03,27.78,974.48,327.91,27.39,53.09,27.56
122,92484,-1.33,-0.80,10.94,-0.00,0.00,-0.03,30.07,27.78,974.48,327.89,27.38,53.11,27.56
123,93223,-1.34,-0.80,10.97,-0.00,0.00,-0.03,30.06,27.78,974.48,327.88,27.38,53.08,27.56
124,93962,-1.34,-0.82,10.95,-0.00,0.00,-0.03,30.04,27.78,974.48,327.91,27.39,53.06,27.56
125,94701,-1.32,-0.80,10.94,-0.00,0.00,-0.03,30.06,27.77,974.48,327.93,27.41,53.08,27.56
126,95440,-1.34,-0.81,10.98,-0.00,0.00,-0.00,30.05,27.77,974.48,327.91,27.41,53.09,27.56
127,96179,-1.33,-0.80,10.97,-0.00,0.00,-0.03,30.05,27.77,974.48,327.91,27.39,53.13,27.56
128,96918,-1.33,-0.80,10.95,-0.00,0.00,-0.03,30.04,27.77,974.48,327.91,27.39,53.15,27.56
129,97657,-1.34,-0.80,10.96,-0.00,-0.07,-0.07,30.06,27.77,974.48,327.93,27.41,53.13,27.56
130,98396,-1.35,-0.79,10.96,-0.00,0.00,-0.03,30.05,27.77,974.48,327.93,27.39,53.11,27.50
131,99135,-1.33,-0.81,10.94,-0.00,0.00,-0.03,30.06,27.77,974.48,327.91,27.41,53.09,27.50
132,99874,-1.33,-0.82,10.93,-0.00,0.00,-0.00,30.05,27.77,974.48,327.95,27.39,53.07,27.56
133,100613,-1.32,-0.79,10.97,-0.00,0.00,-0.03,30.07,27.77,974.48,327.92,27.38,53.08,27.50
134,101352,-1.35,-0.81,10.96,-0.00,-0.07,-0.07,30.07,27.77,974.48,327.92,27.38,53.09,27.56
135,102091,-1.33,-0.79,10.98,-0.00,-0.00,-0.03,30.07,27.77,974.48,327.93,27.38,53.09,27.56
136,102830,-1.34,-0.79,10.95,0.00,0.00,-0.00,30.07,27.77,974.48,327.93,27.41,53.09,27.56
137,103569,-1.33,-0.80,10.94,-0.00,0.00,-0.03,30.07,27.77,974.48,327.95,27.38,53.13,27.56
138,104308,-1.35,-0.82,10.95,-0.00,0.00,-0.03,30.07,27.77,974.48,327.92,27.38,53.09,27.56
139,105047,-1.34,-0.81,10.95,-0.00,0.00,-0.03,30.09,27.77,974.47,327.95,27.39,53.10,27.56
140,105835,0.00,22.17,8.27,-0.32,-3.82,0.00,84.81,27.77,974.47,327.95,27.36,53.07,27.50
141,106574,-1.33,-0.78,10.95,-0.00,0.00,-0.03,30.08,27.77,974.48,327.94,27.36,53.09,27.56
142,107313,-1.33,-0.80,10.93,-0.00,-0.00,-0.03,30.10,27.77,974.48,327.92,27.36,53.10,27.50
143,108052,-1.34,-0.78,10.98,-0.00,-0.00,-0.03,30.10,27.77,974.48,327.92,27.38,53.04,27.56
144,108791,-1.35,-0.79,10.92,-0.00,0.00,-0.03,30.09,27.77,974.47,327.96,27.39,53.08,27.56
145,109530,-1.32,-0.79,10.95,-0.00,0.00,-0.03,30.08,27.77,974.48,327.93,27.35,53.07,27.50
146,110269,-1.33,-0.78,10.93,-0.00,0.00,-0.03,30.08,27.77,974.48,327.93,27.35,53.09,27.50
147,111008,-1.32,-0.79,10.95,-0.00,-0.07,-0.07,30.10,27.76,974.47,327.95,27.35,53.07,27.50
148,111747,-1.34,-0.77,10.98,-0.00,0.00,-0.00,30.09,27.76,974.48,327.93,27.36,53.07,27.50
149,112486,-1.36,-0.79,10.97,-0.00,0.00,-0.03,30.09,27.76,974.48,327.93,27.36,53.10,27.56
150,113274,0.00,22.17,8.27,-0.32,-3.82,0.00,84.81,27.76,974.48,327.93,27.36,53.10,27.50
151,114013,-1.31,-0.81,10.94,-0.00,0.00,-0.03,30.10,27.76,974.47,327.96,27.35,53.06,27.50
152,114752,-1.33,-0.79,10.97,-0.00,0.00,-0.03,30.10,27.76,974.47,327.98,27.33,53.07,27.56
153,115491,-2.67,-1.61,21.86,-0.00,-0.00,-0.03,30.09,27.76,974.47,327.98,27.33,53.05,27.50
154,116230,-1.32,-0.80,10.97,-0.00,0.00,-0.03,30.09,27.76,974.47,328.00,27.36,53.05,27.50
155,116969,-1.35,-0.78,10.95,-0.00,0.00,-0.03,30.09,27.76,974.47,328.03,27.35,53.08,27.50
156,117708,-1.33,-0.81,10.96,-0.00,0.00,-0.03,30.09,27.76,974.47,328.00,27.33,53.05,27.50
157,118447,-1.32,-0.81,10.97,-0.00,-0.00,-0.03,30.09,27.76,974.47,328.00,27.35,53.08,27.50
158,119186,-1.35,-0.82,10.98,-0.00,0.00,-0.03,30.11,27.76,974.47,328.02,27.35,53.11,27.50
159,119925,-1.31,-0.79,10.95,-0.00,-0.00,-0.03,30.10,27.76,974.47,328.01,27.35,53.08,27.50
160,120664,-1.35,-0.81,10.96,-0.14,-0.14,-0.14,24.47,27.76,974.47,328.01,27.32,53.05,27.50
161,121403,-1.33,-0.80,10.96,-0.00,-0.00,-0.03,30.12,27.75,974.47,328.03,27.32,53.09,27.50
162,122142,-1.34,-0.82,10.91,-0.00,0.00,-0.03,30.10,27.75,974.47,328.03,27.35,53.08,27.50
163,122881,-1.34,-0.80,10.97,-0.00,-0.00,-0.03,30.12,27.75,974.46,328.04,27.32,53.07,27.50
164,123620,-1.35,-0.79,10.95,-0.00,0.00,-0.00,30.13,27.75,974.46,328.04,27.33,53.08,27.50
165,124359,-1.33,-0.81,10.94,-0.00,0.00,-0.03,30.12,27.75,974.47,328.02,27.35,53.07,27.50
166,125098,-1.32,-0.81,10.95,-0.00,0.00,-0.03,30.12,27.75,974.46,328.04,27.32,53.02,27.50
167,125837,-1.33,-0.80,10.95,-0.00,-0.00,-0.03,30.12,27.75,974.46,328.04,27.32,53.07,27.50
168,126576,-1.34,-0.80,10.95,-0.00,0.00,-0.03,30.13,27.75,974.47,328.03,27.33,53.10,27.50
169,127315,-1.33,-0.81,10.95,-0.00,0.00,-0.03,30.12,27.75,974.47,328.03,27.33,53.07,27.50
170,128054,-1.32,-0.80,10.94,-0.00,0.00,-0.03,30.14,27.75,974.47,328.01,27.32,53.06,27.50
171,128842,-2.30,22.17,8.27,-0.32,-3.82,0.00,84.81,27.75,974.46,328.05,27.35,53.05,27.50
172,129581,-1.33,-0.81,10.97,-0.00,-0.00,-0.03,30.14,27.75,974.46,328.06,27.33,53.07,27.50
173,130320,-1.33,-0.79,10.97,-0.00,0.00,-0.03,30.13,27.75,974.46,328.05,27.32,53.06,27.50
174,131059,-1.33,-0.81,10.92,-0.00,-0.00,-0.00,30.14,27.75,974.47,328.03,27.32,53.01,27.56
175,131798,-1.34,-0.81,10.95,-0.00,0.00,-0.03,30.13,27.75,974.47,328.03,27.33,53.07,27.56
176,132537,-1.33,-0.81,10.94,-0.00,0.00,-0.03,30.15,27.75,974.47,328.02,27.33,53.07,27.56
177,133276,-1.34,-0.80,10.95,-0.00,0.00,-0.03,30.14,27.75,974.47,328.02,27.35,53.06,27.50
178,134016,-1.33,-0.82,10.96,-0.01,0.01,-0.12,30.14,27.75,974.47,328.00,27.33,53.01,27.56
179,134755,-1.34,-0.80,10.95,-0.00,0.00,-0.03,30.17,27.75,974.47,327.99,27.35,53.07,27.56
180,135494,-1.33,-0.79,10.95,-0.00,-0.00,-0.03,30.15,27.75,974.47,327.99,27.35,53.08,27.50
181,136233,-1.34,-0.81,10.95,-0.00,-0.00,-0.03,30.16,27.75,974.47,327.99,27.35,53.04,27.50
182,136972,-1.34,-0.80,10.97,-0.00,-0.00,-0.03,30.15,27.75,974.47,328.00,27.33,53.08,27.50
183,137711,-1.34,-0.80,10.95,-0.00,0.00,-0.03,30.15,27.75,974.47,327.99,27.33,53.05,27.56
184,138450,-1.34,-0.80,10.94,-0.00,0.00,-0.00,30.15,27.75,974.47,327.97,27.33,53.06,27.50
185,139189,-1.34,-0.80,10.95,-0.00,0.00,-0.03,30.14,27.75,974.47,327.97,27.35,53.06,27.50
186,139928,-1.32,-0.80,10.95,-0.00,0.00,-0.03,30.16,27.75,974.47,327.99,27.38,53.03,27.50
187,140666,-1.33,-0.80,10.96,-0.00,0.00,-0.03,30.16,27.75,974.47,327.99,27.35,53.08,27.50
188,141406,-1.32,-0.82,10.95,-0.00,0.00,-0.03,30.15,27.75,974.47,328.00,27.33,53.04,27.50
189,142145,-1.35,-0.80,10.93,-0.07,-0.07,-0.07,35.77,27.75,974.47,327.99,27.33,53.05,27.50
190,142884,-1.34,-0.79,10.95,-0.00,0.00,-0.03,30.15,27.75,974.47,328.00,27.33,53.05,27.50
191,143623,-1.35,-0.79,10.95,-0.00,0.00,-0.03,30.13,27.75,974.47,328.00,27.33,53.07,27.56
192,144362,-1.33,-0.79,10.92,-0.00,-0.00,-0.03,30.16,27.75,974.47,327.98,27.35,53.08,27.50
193,145101,-1.34,-0.80,10.97,-0.00,-0.00,-0.03,30.16,27.75,974.47,327.98,27.35,53.05,27.50
194,145889,0.00,22.17,8.27,-0.32,-3.82,0.00,84.81,27.75,974.47,328.00,27.35,53.06,27.56
195,146628,-1.33,-0.79,10.94,-0.00,0.00,-0.03,30.15,27.75,974.47,328.01,27.35,53.07,27.56
196,147367,-1.33,-0.80,11.00,-0.00,0.00,-0.03,30.18,27.75,974.47,328.03,27.35,53.06,27.50
197,148106,-1.30,-0.79,10.98,-0.00,0.00,-0.03,30.17,27.75,974.47,328.03,27.36,53.05,27.50
198,148845,-1.34,-0.81,10.96,-0.00,0.00,-0.03,30.18,27.75,974.46,328.07,27.32,53.05,27.50
199,149584,-1.31,-0.80,10.96,-0.00,0.00,-0.03,30.18,27.75,974.46,328.04,27.36,53.02,27.50
200,150323,-1.32,-0.79,10.95,-0.00,-0.00,-0.03,30.17,27.75,974.46,328.06,27.33,53.02,27.56
201,151062,-1.33,-0.80,10.97,-0.00,0.00,-0.03,30.16,27.75,974.46,328.06,27.35,53.03,27.50
202,151801,-1.34,-0.80,10.96,-0.00,0.00,-0.03,30.18,27.75,974.46,328.10,27.36,53.07,27.50
203,152540,-1.33,-0.80,10.94,-0.00,0.00,-0.03,30.18,27.75,974.46,328.08,27.35,53.03,27.56
204,153279,-1.34,-0.79,10.98,-0.00,0.00,-0.03,30.18,27.75,974.46,328.08,27.35,53.04,27.56
205,154018,-1.32,-0.79,10.97,-0.00,0.00,-0.03,30.18,27.75,974.46,328.09,27.35,53.05,27.56
206,154757,-1.33,-0.81,10.94,-0.00,0.00,-0.03,30.17,27.75,974.46,328.11,27.36,53.07,27.50
207,155496,-1.34,-0.79,10.94,-0.01,-0.00,-0.12,30.17,27.75,974.45,328.14,27.35,53.05,27.56
208,156235,-1.34,-0.80,10.97,-0.00,0.00,-0.03,30.18,27.75,974.45,328.14,27.38,53.04,27.50
209,156974,-1.35,-0.81,10.97,0.00,0.00,-0.03,30.17,27.75,974.45,328.15,27.38,53.07,27.50
210,157713,-1.35,-0.80,10.96,-0.00,0.00,-0.03,30.20,27.75,974.45,328.15,27.36,53.05,27.56
211,158452,-1.32,-0.80,10.94,-0.00,0.00,-0.03,30.19,27.75,974.45,328.15,27.36,53.04,27.50
212,159191,-1.36,-0.81,10.93,-0.00,0.00,-0.03,30.20,27.75,974.45,328.15,27.36,53.03,27.56
213,159979,0.00,22.17,8.27,-0.32,-3.82,0.00,84.81,27.75,974.45,328.15,27.36,53.07,27.50
214,160718,-1.34,-0.79,10.95,-0.00,-0.07,-0.07,30.20,27.75,974.45,328.13,27.35,53.03,27.50
215,161457,-1.35,-0.80,10.93,-0.00,0.00,-0.03,30.20,27.75,974.45,328.15,27.38,53.08,27.56
216,162196,-1.34,-0.81,10.98,-0.00,0.00,-0.03,30.22,27.75,974.45,328.15,27.38,53.04,27.56
217,162935,-1.34,-0.79,10.94,-0.00,0.00,-0.03,30.23,27.75,974.45,328.15,27.36,53.05,27.56
218,163674,-1.35,-0.80,10.97,-0.00,0.00,-0.03,30.21,27.75,974.45,328.16,27.38,53.05,27.56
219,164462,0.00,22.17,8.27,-0.32,-3.82,0.00,84.81,27.76,974.45,328.14,27.36,53.10,27.50
220,165201,-1.33,-0.81,10.94,-0.00,0.00,-0.03,30.21,27.76,974.45,328.12,27.38,53.03,27.56
221,165940,-1.33,-0.78,10.97,-0.00,0.00,-0.03,30.21,27.76,974.45,328.12,27.36,53.03,27.56
222,166679,-1.33,-0.80,10.98,-0.00,0.00,-0.03,30.21,27.76,974.46,328.11,27.38,53.06,27.56
223,167469,-2.67,-1.59,21.93,-0.00,-0.00,-0.03,30.22,27.76,974.45,328.12,27.41,53.01,27.50
224,168208,-1.34,-0.79,10.94,-0.00,-0.00,-0.03,30.21,27.76,974.46,328.11,27.36,53.08,27.56
225,168947,-1.33,-0.81,10.94,-0.00,0.00,-0.03,30.22,27.76,974.46,328.11,27.36,53.07,27.50
226,169686,-1.33,-0.79,10.94,-0.00,0.00,-0.03,30.21,27.76,974.45,328.12,27.38,53.03,27.56
227,170425,-1.32,-0.80,10.96,-0.07,-0.07,-0.07,30.20,27.75,974.45,328.15,27.35,53.04,27.56
228,171164,-1.32,-0.79,10.95,-0.00,0.00,-0.03,30.21,27.75,974.45,328.15,27.33,53.05,27.50
229,171903,-1.32,-0.80,10.95,-0.00,0.00,-0.03,30.23,27.75,974.45,328.17,27.36,53.07,27.50
230,172642,-1.33,-0.79,10.98,-0.00,0.00,-0.03,30.22,27.75,974.45,328.17,27.35,53.07,27.50
231,173430,0.00,22.17,8.27,-0.32,-3.82,0.00,84.81,27.75,974.45,328.19,27.36,53.02,27.50
232,174169,-1.35,-0.81,10.94,-0.00,0.00,-0.03,30.22,27.75,974.44,328.21,27.36,53.04,27.56
233,174908,-1.34,-0.79,10.96,-0.00,-0.00,-0.03,30.22,27.75,974.44,328.22,27.35,53.03,27.56
234,175647,-1.33,-0.81,10.98,-0.00,-0.00,-0.03,30.23,27.75,974.44,328.21,27.36,53.06,27.50
235,176386,-1.34,-0.81,10.93,-0.00,-0.00,-0.03,30.23,27.75,974.44,328.22,27.36,53.05,27.50
236,177125,-1.33,-0.79,10.95,-0.00,0.00,-0.03,30.21,27.75,974.44,328.24,27.36,53.02,27.50
237,177864,-1.32,-0.80,10.95,-0.00,0.00,-0.03,30.22,27.75,974.44,328.23,27.36,53.04,27.50
238,178603,-1.32,-0.80,10.97,-0.00,0.00,-0.03,30.21,27.75,974.44,328.23,27.35,53.02,27.50
239,179342,-1.33,-0.81,10.96,-0.00,0.00,-0.03,30.22,27.75,974.44,328.21,27.35,53.03,27.56
240,180081,-1.34,-0.80,10.96,-0.00,0.00,-0.03,30.22,27.75,974.44,328.21,27.36,53.03,27.56
241,180820,-1.35,-0.81,10.96,-0.00,0.00,-0.03,30.22,27.75,974.44,328.21,27.35,53.00,27.56
242,181559,-1.32,-0.80,10.99,-0.00,0.00,-0.03,30.24,27.75,974.45,328.20,27.35,53.07,27.50
243,182297,0.00,22.17,8.27,-0.32,-3.82,0.00,84.81,27.75,974.45,328.20,27.38,53.01,27.50
244,183036,-1.32,-0.81,10.94,-0.00,0.00,-0.03,30.25,27.75,974.44,328.23,27.36,53.02,27.56
245,183775,-1.34,-0.80,10.98,-0.00,0.00,-0.03,30.24,27.75,974.44,328.23,27.38,53.02,27.56
246,184514,-1.35,-0.79,10.99,-0.00,-0.00,-0.03,30.25,27.75,974.44,328.23,27.38,53.02,27.50
247,185253,-1.33,-0.80,10.97,-0.00,-0.00,-0.03,30.22,27.75,974.44,328.24,27.38,53.02,27.50
248,185992,-1.33,-0.79,10.96,-0.00,0.00,-0.03,30.23,27.75,974.44,328.26,27.36,53.03,27.50
249,186731,-1.32,-0.79,10.91,-0.01,0.00,-0.12,30.25,27.75,974.44,328.26,27.38,53.08,27.50
250,187469,-1.33,-0.79,10.95,-0.00,0.00,-0.03,30.26,27.75,974.44,328.21,27.39,53.04,27.56
251,188209,-1.35,-0.80,10.96,-0.00,0.00,-0.03,30.25,27.75,974.44,328.21,27.36,53.05,27.50
252,188997,0.00,22.17,8.27,-0.32,-3.82,0.00,84.81,27.75,974.45,328.19,27.36,53.02,27.50
253,189736,-1.35,-0.82,10.96,-0.00,-0.00,-0.03,30.26,27.75,974.45,328.20,27.38,53.01,27.50
254,190475,-1.32,-0.80,10.93,-0.00,-0.00,-0.03,30.25,27.75,974.44,328.22,27.38,53.05,27.50
255,191214,-1.33,-0.80,10.95,-0.00,-0.00,-0.03,30.26,27.76,974.45,328.18,27.39,53.06,27.56
256,191953,-1.33,-0.79,10.92,-0.00,-0.07,-0.07,30.26,27.76,974.45,328.15,27.39,53.01,27.50
257,192692,-1.34,-0.80,10.98,-0.00,0.00,-0.03,30.25,27.76,974.45,328.16,27.38,53.03,27.50
258,193431,-1.34,-0.80,10.92,-0.00,0.00,-0.03,30.26,27.76,974.45,328.16,27.38,53.03,27.50
259,194170,-1.34,-0.80,10.96,-0.00,0.00,-0.03,30.26,27.76,974.45,328.15,27.39,53.03,27.56
260,194960,-2.69,-1.61,21.89,-0.00,0.00,-0.03,30.26,27.76,974.45,328.18,27.39,53.04,27.50
261,195699,-1.34,-0.81,10.99,-0.00,0.00,-0.03,30.27,27.77,974.45,328.17,27.39,53.05,27.50
262,196438,-1.33,-0.79,10.95,-0.00,0.00,-0.03,30.27,27.77,974.45,328.17,27.39,53.03,27.50
263,197177,-1.35,-0.80,10.95,-0.00,0.00,-0.03,30.27,27.77,974.45,328.17,27.36,53.02,27.50
264,197916,-1.34,-0.80,10.95,-0.00,0.00,-0.03,30.27,27.77,974.45,328.20,27.38,53.03,27.50
265,198706,-2.64,-1.55,21.90,-0.00,0.00,-0.03,30.26,27.77,974.45,328.19,27.38,53.04,27.50
266,199445,-1.34,-0.80,10.93,-0.00,0.00,-0.03,30.27,27.77,974.45,328.21,27.36,53.00,27.50
267,200183,-1.35,-0.80,10.93,-0.00,0.00,-0.03,30.29,27.77,974.45,328.17,27.36,53.03,27.50
268,200922,-1.35,-0.79,10.94,-0.00,0.00,-0.03,30.27,27.77,974.45,328.20,27.38,53.03,27.50
269,201661,-1.33,-0.79,10.97,-0.00,-0.07,-0.07,30.27,27.78,974.45,328.20,27.36,53.02,27.50
270,202401,-1.34,-0.79,10.97,-0.00,-0.07,-0.07,30.28,27.78,974.45,328.20,27.36,53.00,27.50
271,203139,-1.32,-0.80,10.99,-0.00,0.00,-0.03,30.28,27.78,974.44,328.21,27.36,53.02,27.50
272,203879,-1.35,-0.80,10.95,-0.00,0.00,-0.03,30.29,27.78,974.45,328.19,27.36,52.99,27.50
273,204618,-1.34,-0.81,10.95,-0.00,0.00,-0.03,30.27,27.78,974.45,328.21,27.36,53.01,27.50
274,205357,-1.36,-0.80,10.95,-0.00,0.00,-0.03,30.28,27.78,974.45,328.17,27.38,53.01,27.50
275,206096,-1.33,-0.80,10.96,-0.00,0.00,-0.03,30.27,27.78,974.45,328.18,27.35,53.04,27.50
276,206835,-1.34,-0.80,10.96,-0.00,0.00,-0.03,30.27,27.78,974.45,328.20,27.38,53.00,27.50
277,207574,-1.33,-0.80,10.94,-0.00,0.00,-0.03,30.28,27.78,974.45,328.19,27.36,52.99,27.50
278,208313,-1.33,-0.80,10.96,-0.00,0.00,-0.03,30.30,27.79,974.45,328.17,27.38,53.00,27.50
279,209051,-1.35,-0.79,10.94,-0.00,0.00,-0.03,30.29,27.79,974.45,328.19,27.38,53.02,27.50
280,209791,-1.36,-0.80,10.96,-0.01,0.00,-0.11,30.27,27.79,974.45,328.15,27.38,53.00,27.50
281,210530,-1.33,-0.80,10.96,-0.00,0.00,-0.03,30.27,27.79,974.45,328.20,27.36,53.01,27.50
282,211269,-1.31,-0.79,10.94,-0.00,0.00,-0.03,30.29,27.79,974.45,328.18,27.38,53.02,27.50
283,212008,-1.36,-0.79,10.95,-0.00,0.00,-0.03,30.29,27.79,974.44,328.22,27.35,53.02,27.50
284,212747,-1.32,-0.81,10.98,-0.00,0.00,-0.03,30.29,27.79,974.44,328.21,27.36,53.06,27.56
285,213485,-1.32,-0.79,10.96,-0.00,0.00,-0.03,30.28,27.80,974.45,328.19,27.38,53.03,27.50
286,214225,-1.33,-0.81,10.95,-0.00,0.00,-0.03,30.29,27.80,974.44,328.21,27.38,52.99,27.50
287,214964,-1.34,-0.80,10.95,-0.00,0.00,-0.03,30.29,27.80,974.44,328.22,27.39,52.98,27.50
288,215703,-1.33,-0.79,10.95,-0.00,-0.07,-0.07,30.31,27.80,974.45,328.19,27.39,53.02,27.50
289,216492,0.00,22.17,8.27,-0.32,-3.82,0.00,84.81,27.80,974.45,328.20,27.42,53.03,27.50
290,217231,-1.34,-0.82,10.94,-0.00,0.00,-0.03,30.29,27.80,974.45,328.17,27.38,53.00,27.50
291,217970,-1.34,-0.78,10.95,-0.00,0.00,-0.03,30.29,27.80,974.45,328.18,27.39,53.05,27.50
292,218709,-1.33,-0.80,10.98,-0.00,0.00,-0.03,30.31,27.80,974.45,328.20,27.39,52.98,27.50
293,219497,0.00,22.17,8.27,-0.32,-3.82,0.00,84.81,27.80,974.45,328.18,27.41,53.02,27.50
294,220236,-1.34,-0.81,10.94,-0.00,0.00,-0.03,30.29,27.80,974.45,328.19,27.39,52.98,27.50
295,220975,-1.35,-0.82,10.96,-0.00,0.00,-0.03,30.31,27.81,974.45,328.16,27.41,53.02,27.50
296,221714,-1.34,-0.80,10.96,-0.00,0.00,-0.03,30.30,27.81,974.45,328.17,27.41,53.00,27.50
297,222453,-1.34,-0.80,10.95,-0.00,0.00,-0.03,30.30,27.81,974.45,328.17,27.39,53.00,27.50
298,223192,-1.34,-0.81,10.98,-0.07,-0.07,-0.07,24.48,27.81,974.45,328.20,27.41,52.99,27.50
299,223931,-1.32,-0.80,10.99,-0.00,0.00,-0.03,30.29,27.81,974.44,328.22,27.41,53.02,27.50
300,224670,-1.31,-0.80,10.98,-0.00,0.00,-0.03,30.29,27.81,974.45,328.18,27.42,53.00,27.50
301,225409,-1.33,-0.81,10.93,-0.00,0.00,-0.03,30.29,27.81,974.45,328.20,27.42,53.00,27.50
302,226148,-1.34,-0.79,10.94,-0.00,-0.07,-0.07,30.29,27.81,974.45,328.18,27.41,52.94,27.50
303,226937,-1.34,-0.79,10.97,-0.00,-0.27,-0.27,30.31,27.81,974.45,328.20,27.42,53.02,27.50
304,227676,-1.34,-0.80,10.95,-0.00,0.00,-0.11,30.32,27.81,974.44,328.21,27.41,53.00,27.50
305,228414,-1.34,-0.78,10.95,-0.00,0.00,-0.03,30.30,27.81,974.44,328.23,27.41,53.00,27.50
306,229154,-1.34,-0.80,10.97,-0.00,0.00,-0.03,30.31,27.81,974.44,328.23,27.41,53.00,27.56
307,229893,-1.33,-0.81,10.94,-0.01,0.00,-0.12,30.33,27.81,974.44,328.23,27.42,53.02,27.50
308,230632,-1.33,-0.81,10.97,-0.00,0.00,-0.03,30.30,27.81,974.45,328.21,27.41,53.00,27.50
309,231371,-1.32,-0.81,10.93,-0.00,0.00,-0.03,30.30,27.81,974.44,328.22,27.42,52.98,27.50
310,232110,-1.33,-0.79,10.99,-0.00,0.00,-0.03,30.31,27.81,974.44,328.23,27.39,53.00,27.56
311,232849,-1.34,-0.79,10.96,-0.00,0.00,-0.03,30.31,27.81,974.44,328.25,27.42,53.04,27.50
312,233588,-1.32,-0.81,10.95,-0.00,0.00,-0.03,30.31,27.81,974.44,328.25,27.38,53.02,27.50
313,234327,-1.31,-0.80,10.96,-0.00,-0.00,-0.03,30.31,27.81,974.44,328.26,27.42,53.01,27.56
314,235066,-1.33,-0.81,10.97,-0.00,0.00,-0.03,30.33,27.81,974.44,328.26,27.39,52.98,27.50
315,235805,-1.35,-0.79,10.94,-0.00,0.00,-0.03,30.31,27.82,974.44,328.23,27.43,53.00,27.50
316,236544,-1.33,-0.80,10.93,-0.00,0.00,-0.03,30.32,27.82,974.44,328.26,27.38,53.01,27.56
317,237283,-1.33,-0.80,10.98,-0.00,-0.07,-0.07,30.30,27.82,974.44,328.26,27.41,52.99,27.50
318,238022,-1.33,-0.79,10.94,-0.00,0.00,-0.03,30.33,27.82,974.44,328.26,27.43,52.99,27.50
319,238761,-1.34,-0.81,10.93,-0.00,0.00,-0.03,30.34,27.82,974.44,328.27,27.42,52.99,27.50
320,239500,-1.33,-0.80,10.95,-0.00,0.00,-0.03,30.33,27.82,974.44,328.26,27.45,52.98,27.50
321,240239,-1.32,-0.80,10.95,-0.00,-0.00,-0.03,30.34,27.82,974.44,328.27,27.41,52.99,27.50
322,240978,-1.34,-0.80,10.94,-0.00,0.00,-0.03,30.34,27.82,974.43,328.30,27.41,52.97,27.50
323,241717,-1.33,-0.80,10.96,-0.00,0.00,-0.03,30.34,27.82,974.43,328.29,27.42,52.99,27.50
324,242456,-1.34,-0.80,10.95,-0.00,0.00,-0.03,30.31,27.82,974.44,328.28,27.42,53.02,27.56
325,243195,-1.36,-1.23,-0.62,-0.07,-0.07,-0.07,35.77,27.82,974.43,328.29,27.41,53.03,27.56
326,243934,-1.35,-0.81,10.96,-0.00,-0.00,-0.03,30.33,27.82,974.43,328.29,27.39,52.98,27.56
327,244673,-1.33,-0.80,10.95,-0.00,-0.07,-0.07,30.34,27.82,974.43,328.31,27.42,53.00,27.50
328,245412,-1.35,-0.79,10.98,-0.00,0.00,-0.03,30.35,27.82,974.43,328.29,27.42,52.98,27.56
329,246151,-1.34,-0.80,10.98,-0.00,0.00,-0.03,30.36,27.82,974.43,328.29,27.42,52.98,27.56
330,246890,-1.33,-0.79,10.94,-0.00,0.00,-0.03,30.35,27.82,974.43,328.31,27.42,53.01,27.50
331,247629,-1.33,-0.80,10.95,-0.00,0.00,-0.03,30.33,27.82,974.43,328.32,27.42,53.01,27.56
332,248368,-1.35,-0.79,10.95,-0.00,-0.00,-0.03,30.34,27.82,974.43,328.32,27.43,52.98,27.50
333,249107,-1.31,-0.79,10.94,-0.07,-0.07,-0.07,30.19,27.82,974.43,328.34,27.42,53.00,27.50
334,249846,-1.34,-0.81,10.98,-0.00,0.00,-0.03,30.33,27.82,974.43,328.32,27.45,53.01,27.56
335,250585,-2.66,-1.60,21.91,-0.00,0.00,-0.03,30.35,27.82,974.43,328.34,27.41,53.02,27.50
336,251324,-1.33,-0.81,10.97,-0.00,0.00,-0.03,30.34,27.82,974.43,328.35,27.43,52.98,27.56
337,252063,-1.35,-0.81,10.95,-0.00,0.00,-0.00,30.34,27.82,974.43,328.32,27.43,52.98,27.56
338,252802,-1.35,-0.81,10.96,-0.00,-0.07,-0.14,30.35,27.82,974.43,328.32,27.43,53.00,27.56
339,253541,-1.33,-0.79,10.95,-0.00,0.00,-0.03,30.37,27.82,974.43,328.33,27.43,53.00,27.56
340,254280,-1.33,-0.79,10.96,-0.00,0.00,-0.03,30.34,27.82,974.43,328.33,27.43,53.00,27.56
341,255019,-1.34,-0.81,10.93,-0.00,0.00,-0.03,30.35,27.82,974.43,328.33,27.42,53.03,27.56
342,255758,-1.33,-0.82,10.95,-0.00,0.00,-0.03,30.37,27.82,974.43,328.33,27.42,53.02,27.56
343,256497,-1.33,-0.79,10.96,-0.00,0.00,-0.03,30.35,27.82,974.43,328.35,27.45,52.95,27.56
344,257236,-1.34,-0.80,10.97,-0.00,0.00,-0.03,30.35,27.82,974.43,328.35,27.43,53.01,27.56
345,258026,-2.70,-1.62,21.85,-0.00,0.00,-0.03,30.35,27.82,974.43,328.31,27.43,53.01,27.56
346,258765,-1.35,-0.79,10.93,-0.00,0.00,-0.03,30.38,27.82,974.43,328.31,27.45,53.00,27.56
347,259504,-1.35,-0.79,10.95,-0.00,0.00,-0.03,30.34,27.82,974.43,328.31,27.43,52.99,27.56
348,260243,-1.35,-0.79,10.94,-0.00,0.00,-0.03,30.35,27.82,974.43,328.33,27.46,52.98,27.56
349,260982,-1.32,-0.80,10.96,-0.00,-0.00,-0.03,30.35,27.82,974.43,328.31,27.46,53.01,27.56
350,261721,-1.34,-0.80,10.99,-0.00,0.00,-0.03,30.37,27.82,974.43,328.30,27.45,52.96,27.56
351,262459,-1.34,-0.80,10.96,-0.00,0.00,-0.03,30.35,27.82,974.43,328.30,27.45,52.99,27.56
352,263248,0.00,22.17,8.27,-0.32,-3.82,0.00,84.81,27.82,974.43,328.31,27.46,52.98,27.56
353,263987,-1.31,-0.79,10.96,-0.00,0.00,-0.03,30.36,27.83,974.44,328.26,27.46,52.99,27.56
354,264726,-1.33,-0.80,10.99,-0.00,0.00,-0.03,30.37,27.83,974.44,328.28,27.45,52.98,27.56
355,265465,-1.33,-0.79,10.97,-0.00,0.00,-0.00,30.37,27.83,974.43,328.31,27.45,53.00,27.56
356,266253,0.00,22.17,8.27,-0.32,-3.82,0.00,84.81,27.83,974.43,328.31,27.45,52.99,27.56
357,266992,-1.33,-0.81,10.95,-0.00,0.00,-0.03,30.38,27.83,974.43,328.31,27.46,52.98,27.56
358,267731,-1.32,-0.80,10.95,-0.00,0.00,-0.03,30.38,27.83,974.43,328.31,27.45,53.03,27.56
359,268470,-1.35,-0.80,10.94,-0.00,0.00,-0.03,30.37,27.83,974.44,328.27,27.46,52.99,27.56
360,269209,-1.33,-0.80,10.98,-0.00,0.00,-0.03,30.37,27.83,974.44,328.29,27.45,52.96,27.56
361,269948,-1.33,-0.80,10.97,-0.00,0.00,-0.03,30.39,27.83,974.44,328.29,27.47,52.99,27.56
362,270687,-1.32,-0.79,10.97,-0.00,0.00,-0.03,30.37,27.83,974.44,328.29,27.43,52.98,27.56
363,271426,-1.32,-0.80,10.93,-0.00,0.00,-0.03,30.39,27.83,974.43,328.30,27.46,52.99,27.56
364,272165,-1.34,-0.80,10.95,-0.00,-0.00,-0.03,30.38,27.83,974.44,328.27,27.46,52.98,27.56
365,272904,-1.34,-0.80,10.95,-0.00,0.00,-0.03,30.38,27.83,974.43,328.29,27.46,52.96,27.56
366,273643,-1.35,-0.81,10.92,-0.00,0.00,-0.03,30.39,27.83,974.43,328.32,27.49,53.03,27.56
367,274382,-1.37,-0.84,10.93,-0.00,-0.00,-0.03,30.38,27.83,974.43,328.32,27.46,52.92,27.56
368,275121,-1.37,-0.80,10.96,-0.00,0.00,-0.03,30.39,27.83,974.43,328.30,27.49,52.98,27.56
369,275860,-1.35,-0.82,10.93,-0.00,0.00,-0.03,30.40,27.83,974.43,328.30,27.50,52.95,27.56
370,276599,-1.31,-0.79,10.97,-0.00,0.00,-0.03,30.39,27.84,974.44,328.28,27.46,52.95,27.56
371,277338,-1.34,-0.81,10.93,-0.00,0.00,-0.03,30.38,27.84,974.43,328.31,27.47,52.97,27.62
372,278077,-1.32,-0.79,10.95,-0.00,0.00,-0.03,30.40,27.84,974.43,328.33,27.47,52.99,27.56
373,278816,-1.35,-0.78,10.94,-0.00,0.00,-0.03,30.40,27.84,974.43,328.31,27.50,52.96,27.56
374,279605,0.00,22.17,8.27,-0.32,-3.82,0.00,84.81,27.84,974.43,328.32,27.50,52.97,27.56
375,280344,-1.33,-0.79,10.95,-0.00,0.00,-0.07,30.39,27.84,974.43,328.34,27.49,52.96,27.56
376,281083,-1.32,-0.81,10.95,-0.00,0.00,-0.03,30.39,27.84,974.43,328.32,27.50,52.96,27.56
377,281821,-1.32,-0.79,10.96,-0.00,0.00,-0.03,30.40,27.84,974.43,328.33,27.50,53.00,27.56
378,282561,-1.34,-0.78,10.97,-0.00,-0.07,-0.07,30.42,27.84,974.43,328.33,27.49,52.95,27.56
379,283300,-2.69,-1.65,21.88,-0.00,0.00,-0.03,30.40,27.84,974.43,328.34,27.52,52.98,27.62
380,284039,-1.33,-0.79,10.96,-0.00,0.00,-0.03,30.40,27.85,974.43,328.34,27.50,52.95,27.62
381,284778,-1.31,-0.82,10.96,-0.00,0.00,-0.03,30.41,27.85,974.43,328.35,27.50,52.98,27.56
382,285516,-1.33,-0.80,10.98,-0.00,0.00,-0.03,30.40,27.85,974.43,328.31,27.47,52.99,27.62
383,286256,-1.36,-0.79,10.96,-0.00,-0.07,-0.07,30.43,27.85,974.43,328.33,27.50,52.96,27.56
384,286995,-1.34,-0.80,10.94,-0.00,0.00,-0.03,30.43,27.85,974.43,328.36,27.52,52.96,27.62
385,287734,-1.33,-0.78,10.96,0.00,0.00,-0.03,30.40,27.85,974.43,328.34,27.50,52.97,27.62
386,288473,-1.34,-0.82,10.93,-0.00,0.00,-0.03,30.43,27.85,974.43,328.35,27.52,52.98,27.62
387,289211,-1.36,-0.79,10.95,-0.00,0.00,-0.03,30.40,27.85,974.43,328.35,27.53,52.96,27.62
388,289951,-1.34,-0.79,10.94,-0.00,0.00,-0.03,30.42,27.85,974.43,328.36,27.53,52.98,27.56
389,290690,-1.34,-0.78,10.91,-0.00,-0.07,-0.07,30.43,27.85,974.43,328.36,27.52,52.95,27.56
390,291429,-1.30,-0.80,10.98,-0.00,0.00,-0.03,30.44,27.85,974.42,328.39,27.50,52.99,27.56
391,292168,-1.31,-0.79,10.96,-0.00,0.00,-0.03,30.43,27.85,974.42,328.40,27.53,52.95,27.62
392,292907,-1.32,-0.81,10.96,-0.00,0.00,-0.03,30.43,27.86,974.42,328.40,27.50,52.94,27.62
393,293646,-1.32,-0.80,10.96,-0.00,0.00,-0.03,30.45,27.86,974.42,328.41,27.53,53.00,27.62
394,294385,-1.34,-0.82,10.97,-0.00,0.00,-0.03,30.42,27.86,974.42,328.41,27.53,52.94,27.62
395,295124,-1.33,-0.80,10.93,-0.00,0.00,-0.03,30.42,27.86,974.42,328.39,27.52,53.00,27.62
396,295914,-2.68,-1.60,21.90,-0.00,0.00,-0.03,30.43,27.86,974.42,328.39,27.52,53.00,27.62
397,296653,-1.34,-0.80,10.96,-0.00,0.00,-0.03,30.42,27.86,974.42,328.41,27.53,52.96,27.62
398,297392,-1.33,-0.80,10.95,-0.00,0.00,-0.03,30.42,27.86,974.42,328.41,27.50,52.98,27.56
399,298131,-1.33,-0.81,10.95,-0.00,0.00,-0.03,30.43,27.86,974.42,328.41,27.54,52.97,27.56
400,298870,-1.35,-0.80,10.95,-0.00,-0.00,-0.03,30.43,27.86,974.42,328.42,27.47,52.91,27.62
401,299608,0.00,22.17,8.27,-0.32,-3.82,0.00,84.81,27.86,974.42,328.42,27.52,52.99,27.62
402,300396,0.00,22.17,8.27,-0.32,-3.82,0.00,84.81,27.86,974.43,328.36,27.52,52.94,27.62
403,301135,-1.34,-0.80,10.96,-0.00,0.00,-0.03,30.41,27.86,974.43,328.35,27.50,52.94,27.62
404,301925,-2.66,-1.61,21.92,-0.00,0.00,-0.00,30.43,27.86,974.43,328.35,27.50,52.98,27.62
405,302664,-1.34,-0.80,10.96,-0.00,0.00,-0.03,30.43,27.86,974.43,328.33,27.53,52.98,27.62
406,303403,-1.33,-0.81,10.94,-0.00,0.00,-0.03,30.43,27.86,974.43,328.33,27.53,52.94,27.62
407,304142,-1.35,-0.80,10.96,-0.00,0.00,-0.03,30.43,27.86,974.43,328.32,27.52,52.97,27.62
408,304881,-1.33,-0.80,10.96,-0.00,0.00,-0.03,30.42,27.86,974.43,328.32,27.53,52.98,27.62
409,305620,-1.33,-0.81,10.94,-0.00,0.00,-0.03,30.40,27.86,974.43,328.32,27.50,52.94,27.62
410,306359,-1.34,-0.80,10.96,-0.00,0.00,-0.03,30.42,27.86,974.44,328.29,27.52,52.98,27.62
411,307098,-1.32,-0.86,10.94,-0.00,-0.00,-0.03,30.42,27.86,974.44,328.27,27.52,52.96,27.62
412,307837,-1.32,-0.82,10.99,-0.00,0.00,-0.03,30.43,27.86,974.44,328.25,27.53,52.96,27.62
413,308576,-1.34,-0.80,10.93,-0.00,0.00,-0.03,30.42,27.86,974.44,328.25,27.53,52.99,27.62
414,309315,-1.33,-0.77,10.97,-0.00,0.00,-0.03,30.42,27.86,974.44,328.27,27.54,52.95,27.62
415,310054,-1.34,-0.79,10.94,-0.00,0.00,-0.03,30.42,27.87,974.44,328.23,27.52,52.96,27.62
416,310793,-1.31,-0.80,10.97,-0.00,0.00,-0.03,30.42,27.87,974.44,328.23,27.52,52.96,27.62
417,311532,-1.33,-0.76,10.96,-0.00,0.00,-0.03,30.42,27.87,974.44,328.25,27.56,52.96,27.62
418,312271,-1.32,-0.77,10.96,-0.00,0.00,-0.03,30.43,27.87,974.44,328.25,27.54,52.94,27.62
419,313010,-1.32,-0.78,10.97,-0.00,-0.00,-0.03,30.43,27.87,974.44,328.23,27.53,52.96,27.62
420,313799,0.00,22.17,8.27,-0.32,-3.82,0.00,84.81,27.87,974.44,328.23,27.54,52.94,27.62
421,314538,-1.33,-0.76,10.95,-0.00,0.00,-0.03,30.43,27.87,974.44,328.26,27.54,52.97,27.62
422,315277,-1.31,-0.81,10.98,-0.00,-0.00,-0.03,30.43,27.87,974.44,328.26,27.54,52.96,27.62
423,316016,-1.32,-0.77,10.94,-0.00,-0.00,-0.07,30.42,27.87,974.44,328.28,27.56,52.94,27.62
424,316755,-1.34,-0.80,10.95,-0.00,-0.07,-0.07,30.44,27.87,974.44,328.25,27.56,52.97,27.62
425,317494,-1.30,-0.80,10.95,-0.00,0.00,-0.03,30.44,27.87,974.44,328.27,27.54,52.96,27.62
426,318282,0.00,22.17,8.27,-0.32,-3.82,0.00,84.81,27.87,974.44,328.28,27.54,52.94,27.69
427,319021,-1.34,-0.80,10.96,-0.00,0.00,-0.03,30.42,27.87,974.44,328.26,27.54,52.95,27.62
428,319760,-1.31,-0.80,10.97,-0.00,0.00,-0.03,30.42,27.87,974.44,328.29,27.56,52.92,27.62
429,320499,-1.31,-0.81,10.94,-0.00,-0.07,-0.07,30.42,27.87,974.44,328.29,27.54,52.97,27.62
430,321238,-1.33,-0.81,10.98,-0.00,-0.00,-0.03,30.42,27.87,974.43,328.30,27.53,52.96,27.62
431,321977,-1.39,-0.74,10.94,-0.00,0.00,-0.03,30.42,27.87,974.43,328.32,27.54,52.96,27.62
432,322716,-1.27,-0.79,10.97,-0.00,0.00,-0.03,30.42,27.88,974.44,328.29,27.53,52.99,27.62
433,323455,-1.29,-0.80,10.98,-0.00,0.00,-0.03,30.42,27.88,974.43,328.30,27.54,52.97,27.62
434,324194,-1.30,-0.80,10.95,-0.00,0.00,-0.00,30.43,27.88,974.43,328.31,27.54,52.92,27.62
435,324933,-1.34,-0.79,10.98,-0.00,0.00,-0.03,30.42,27.88,974.43,328.33,27.53,52.94,27.62
436,325672,-1.31,-0.80,10.96,-0.00,0.00,-0.03,30.45,27.88,974.43,328.34,27.54,52.93,27.69
437,326411,-1.35,-0.80,10.94,-0.00,0.00,-0.03,30.43,27.88,974.43,328.36,27.56,52.95,27.62
438,327150,-1.33,-0.79,10.97,-0.00,0.00,-0.03,30.44,27.88,974.43,328.35,27.54,52.96,27.62
439,327889,-1.30,-0.79,10.96,-0.00,0.00,-0.03,30.42,27.88,974.43,328.37,27.53,52.95,27.62
440,328628,-1.34,-0.79,10.95,-0.00,0.00,-0.03,30.42,27.88,974.42,328.40,27.56,52.95,27.69
441,329418,-2.65,-1.65,21.91,-0.00,0.00,-0.03,30.42,27.88,974.42,328.41,27.54,52.96,27.69
442,330157,-1.31,-0.80,10.98,-0.00,0.00,-0.03,30.43,27.88,974.42,328.42,27.56,52.96,27.69
443,330896,-1.36,-0.82,10.97,-0.00,0.00,-0.03,30.43,27.88,974.42,328.44,27.56,52.97,27.62
444,331635,-1.35,-0.80,11.00,-0.00,-0.00,-0.03,30.44,27.88,974.42,328.45,27.56,52.96,27.62
445,332374,-1.31,-0.79,10.96,-0.00,0.00,-0.03,30.44,27.88,974.42,328.45,27.57,52.92,27.69
446,333113,-1.32,-0.79,10.96,-0.00,0.00,-0.03,30.44,27.88,974.41,328.48,27.56,52.93,27.69
447,333851,-1.32,-0.81,10.97,-0.00,0.00,-0.03,30.44,27.88,974.41,328.50,27.56,52.95,27.69
448,334591,-1.33,-0.78,10.97,-0.00,-0.00,-0.03,30.44,27.88,974.41,328.48,27.56,52.94,27.69
449,335330,-1.32,-0.80,10.96,-0.00,0.00,-0.03,30.44,27.88,974.41,328.49,27.57,52.99,27.69
450,336069,-1.33,-0.79,10.94,-0.00,0.00,-0.00,30.46,27.88,974.41,328.52,27.56,52.95,27.69
451,336808,-1.36,-0.79,10.94,-0.00,-0.07,-0.14,30.46,27.88,974.41,328.51,27.56,52.97,27.69
452,337547,-1.32,-0.78,10.97,-0.00,0.00,-0.03,30.44,27.88,974.41,328.53,27.59,52.95,27.69
453,338337,-2.68,-1.59,21.94,-0.00,0.00,-0.03,30.45,27.88,974.41,328.53,27.57,52.94,27.69
454,339076,-1.31,-0.78,10.95,-0.00,-0.00,-0.03,30.45,27.88,974.40,328.55,27.57,52.97,27.69
455,339815,-1.30,-0.79,10.95,-0.00,-0.00,-0.03,30.41,27.88,974.40,328.57,27.57,52.95,27.69
456,340554,-1.35,-0.80,10.96,-0.00,0.00,-0.03,30.45,27.88,974.40,328.57,27.57,52.94,27.69
457,341293,-1.30,-0.79,10.93,-0.00,0.00,-0.03,30.44,27.89,974.41,328.55,27.59,52.90,27.69
458,342032,-1.34,-0.80,10.94,-0.00,0.00,-0.03,30.45,27.89,974.40,328.56,27.57,52.97,27.62
459,342771,-1.30,-0.80,10.95,-0.00,0.00,-0.03,30.46,27.89,974.40,328.56,27.59,52.95,27.69
460,343510,-1.32,-0.80,10.96,-0.00,0.00,-0.03,30.45,27.89,974.41,328.54,27.57,52.95,27.69
461,344249,-1.33,-0.81,10.98,-0.00,0.00,-0.03,30.47,27.89,974.41,328.54,27.57,52.97,27.62
462,344988,-1.35,-0.80,10.98,-0.00,-0.00,-0.03,30.46,27.89,974.41,328.53,27.57,52.94,27.69
463,345778,-2.62,-1.58,21.93,-0.00,0.00,-0.03,30.45,27.89,974.41,328.54,27.59,52.95,27.69
464,346516,0.00,22.17,8.27,-0.32,-3.82,0.00,84.81,27.89,974.41,328.52,27.60,52.94,27.69
465,347255,-1.34,-0.80,10.98,-0.00,0.00,-0.03,30.45,27.89,974.41,328.54,27.60,52.95,27.69
466,347994,-1.35,-0.78,10.96,-0.00,0.00,-0.03,30.47,27.89,974.41,328.54,27.57,52.95,27.62
467,348733,-1.34,-0.78,10.96,-0.00,-0.00,-0.03,30.45,27.89,974.40,328.55,27.57,52.94,27.69
468,349472,-1.32,-0.77,10.95,-0.00,0.00,-0.03,30.45,27.89,974.40,328.57,27.59,52.89,27.69
469,350211,-1.32,-0.79,10.95,-0.00,-0.00,-0.03,30.46,27.89,974.40,328.60,27.57,52.94,27.69
470,350999,0.00,22.17,8.27,-0.32,-3.82,0.00,84.81,27.89,974.40,328.61,27.59,52.93,27.69
471,351738,-1.33,-0.82,10.97,-0.00,0.00,-0.03,30.47,27.89,974.39,328.64,27.59,52.94,27.69
472,352477,-1.35,-0.79,10.94,-0.00,0.00,-0.03,30.46,27.89,974.40,328.60,27.60,52.94,27.69
473,353216,-1.31,-0.72,10.94,-0.00,-0.00,-0.03,30.46,27.89,974.40,328.62,27.57,52.94,27.69
474,353955,-1.33,-0.80,10.96,-0.01,0.00,-0.12,30.46,27.89,974.40,328.62,27.57,52.92,27.69
475,354694,-1.33,-0.79,10.96,-0.00,0.00,-0.03,30.47,27.89,974.40,328.63,27.54,52.93,27.69
476,355433,-1.32,-0.81,10.94,-0.00,0.00,-0.03,30.45,27.89,974.39,328.65,27.56,52.93,27.69
477,356172,-1.33,-0.81,10.95,-0.07,-0.07,-0.07,30.44,27.89,974.39,328.66,27.57,52.95,27.69
478,356911,-1.38,-0.82,10.92,-0.00,0.00,-0.03,30.47,27.89,974.39,328.66,27.60,52.95,27.69
479,357650,-1.34,-0.80,10.95,-0.07,-0.07,-0.07,30.46,27.89,974.39,328.69,27.57,52.94,27.69
480,358388,-1.32,-0.82,10.98,-0.00,0.00,-0.03,30.49,27.90,974.39,328.64,27.57,52.92,27.69
481,359127,-1.29,-0.81,10.93,-0.07,-0.07,-0.07,30.47,27.90,974.40,328.63,27.59,52.96,27.69
482,359866,-1.34,-0.84,10.95,-0.00,0.00,-0.03,30.48,27.90,974.40,328.63,27.60,52.94,27.69
483,360606,-1.30,-0.84,10.97,-0.00,-0.00,-0.03,30.50,27.90,974.40,328.63,27.60,52.94,27.69
484,361345,-1.34,-0.80,10.96,-0.00,-0.00,-0.03,30.47,27.90,974.40,328.59,27.57,52.92,27.69
485,362134,0.00,22.17,8.27,-0.32,-3.82,0.00,84.81,27.90,974.40,328.59,27.59,52.95,27.69
486,362872,-1.34,-0.76,10.95,-0.00,0.00,-0.03,30.49,27.90,974.40,328.59,27.61,52.91,27.69
487,363663,-2.64,-1.61,21.96,-0.00,0.00,-0.03,30.48,27.90,974.40,328.58,27.60,52.91,27.69
488,364402,-1.32,-0.79,10.96,-0.00,0.00,-0.03,30.48,27.90,974.40,328.57,27.60,52.93,27.69
489,365141,-1.32,-0.79,10.96,-0.00,0.00,-0.03,30.48,27.90,974.41,328.53,27.59,52.91,27.69
490,365931,-2.69,-1.62,21.85,-0.00,0.00,-0.03,30.48,27.90,974.41,328.52,27.60,52.92,27.69
491,366670,-1.32,-0.82,10.97,-0.00,0.00,-0.03,30.49,27.90,974.41,328.52,27.59,52.91,27.69
492,367409,-1.33,-0.79,10.97,-0.01,-0.00,-0.12,30.49,27.90,974.41,328.55,27.59,52.93,27.69
493,368148,-1.33,-0.78,10.96,-0.00,0.00,-0.03,30.48,27.90,974.41,328.55,27.57,52.91,27.69
494,368887,-1.30,-0.82,10.96,-0.07,-0.07,-0.07,30.47,27.90,974.41,328.55,27.59,52.93,27.69
495,369626,-1.32,-0.78,10.96,-0.00,0.00,-0.03,30.49,27.90,974.41,328.55,27.59,52.94,27.69
496,370365,-1.36,-0.79,10.94,-0.00,0.00,-0.03,30.50,27.90,974.41,328.50,27.60,52.93,27.69
497,371104,-1.28,-0.86,10.98,-0.00,0.00,-0.03,30.48,27.90,974.41,328.50,27.60,52.89,27.69
498,371843,-1.35,-0.78,10.94,-0.00,0.00,-0.03,30.50,27.90,974.41,328.53,27.56,52.92,27.69
499,372582,-1.32,-0.80,10.94,-0.00,0.00,-0.03,30.49,27.90,974.41,328.53,27.60,52.92,27.69
500,373321,-1.33,-0.79,10.97,-0.00,0.00,-0.03,30.49,27.90,974.41,328.54,27.57,52.96,27.69
501,374060,-1.32,-0.80,10.99,-0.00,0.00,-0.03,30.50,27.90,974.41,328.54,27.60,52.92,27.69
502,374799,-1.35,-0.80,10.97,-0.00,0.00,-0.03,30.49,27.91,974.41,328.49,27.61,52.90,27.69
503,375538,-1.30,-0.90,10.93,-0.00,-0.00,-0.03,30.50,27.91,974.41,328.51,27.59,52.90,27.69
504,376277,-1.35,-0.79,10.97,-0.00,0.00,-0.03,30.50,27.91,974.41,328.52,27.56,52.91,27.69
505,377016,-1.31,-0.83,10.93,-0.00,0.00,-0.03,30.50,27.91,974.41,328.54,27.59,52.91,27.69
506,377755,-1.33,-0.83,10.95,-0.00,0.00,-0.03,30.49,27.91,974.40,328.56,27.57,52.93,27.69
507,378494,-1.31,-0.77,10.97,-0.07,-0.07,-0.07,30.46,27.91,974.40,328.56,27.57,52.95,27.69
508,379233,-1.29,-0.74,10.95,-0.00,0.00,-0.00,30.49,27.91,974.40,328.56,27.57,52.93,27.69
509,379972,-1.34,-0.63,10.94,-0.07,-0.07,-0.07,30.46,27.90,974.40,328.61,27.60,52.92,27.69
510,380711,-1.33,-0.83,10.93,-0.01,0.01,-0.11,30.50,27.90,974.39,328.64,27.60,52.91,27.69
511,381499,0.00,22.17,8.27,-0.32,-3.82,0.00,84.81,27.90,974.39,328.64,27.60,52.92,27.69
512,382238,-1.32,-0.77,10.99,-0.00,0.00,-0.03,30.50,27.90,974.40,328.63,27.60,52.91,27.69
513,382977,-1.34,-0.79,10.93,-0.00,0.00,-0.03,30.50,27.90,974.40,328.63,27.60,52.91,27.69
514,383716,-1.30,-0.79,10.97,-0.00,0.00,-0.03,30.49,27.90,974.40,328.61,27.59,52.93,27.69
515,384455,-1.32,-0.77,10.95,-0.00,0.00,-0.03,30.51,27.90,974.40,328.61,27.60,52.92,27.69
516,385194,-1.32,-0.80,10.95,-0.00,0.00,-0.03,30.49,27.90,974.40,328.63,27.60,52.89,27.69
517,385933,-1.40,-0.59,10.96,-0.00,0.01,-0.03,30.51,27.90,974.40,328.61,27.59,52.93,27.69
518,386672,-1.32,-0.79,11.00,-0.00,0.00,-0.03,30.48,27.90,974.40,328.60,27.59,52.91,27.69
519,387411,-1.33,-1.23,-1.23,-0.14,-0.27,-0.27,35.02,27.90,974.40,328.60,27.59,52.91,27.69
520,388150,-1.30,-0.80,10.95,-0.00,-0.00,-0.03,30.53,27.90,974.40,328.58,27.57,52.93,27.62
521,388889,-1.30,-0.83,10.99,-0.00,0.00,-0.03,30.50,27.90,974.40,328.60,27.60,52.93,27.69
522,389628,-1.31,-0.84,10.97,-0.00,-0.00,-0.03,30.49,27.90,974.40,328.60,27.60,52.90,27.69
523,390367,-1.32,-0.79,10.93,-0.00,0.00,-0.03,30.49,27.90,974.40,328.61,27.60,52.89,27.69
524,391106,-1.30,-0.81,10.97,-0.00,0.00,-0.03,30.50,27.90,974.40,328.61,27.60,52.93,27.69
525,391845,-1.34,-0.79,10.96,-0.00,0.00,-0.03,30.50,27.90,974.40,328.63,27.57,52.89,27.69
526,392584,-1.32,-0.81,10.98,-0.00,0.00,-0.03,30.49,27.90,974.40,328.61,27.59,52.91,27.69
527,393323,-1.30,-0.80,10.95,-0.00,0.00,-0.03,30.50,27.90,974.40,328.63,27.61,52.94,27.69
528,394062,-1.32,-0.80,10.96,-0.00,0.00,-0.03,30.50,27.90,974.40,328.61,27.61,52.92,27.69
529,394801,-1.33,-0.79,10.92,-0.00,-0.00,-0.03,30.51,27.90,974.40,328.63,27.60,52.90,27.69
530,395540,-1.35,-0.79,10.95,-0.00,0.00,-0.03,30.50,27.90,974.40,328.63,27.60,52.89,27.69
531,396279,-1.34,-0.79,10.94,-0.00,0.00,-0.03,30.50,27.90,974.39,328.64,27.61,52.93,27.69
532,397018,-1.35,-0.81,10.94,-0.00,0.00,-0.03,30.49,27.90,974.39,328.64,27.59,52.91,27.69
533,397757,-1.32,-0.80,10.97,-0.00,-0.00,-0.03,30.49,27.90,974.39,328.66,27.59,52.89,27.69
534,398496,-1.33,-0.80,10.96,-0.00,-0.27,-0.27,30.50,27.90,974.39,328.64,27.59,52.92,27.69
535,399286,-2.63,-1.61,21.90,-0.00,0.00,-0.03,30.50,27.90,974.39,328.66,27.59,52.93,27.62
536,400025,-1.23,-0.62,-0.62,-0.07,-0.07,-0.07,35.77,27.90,974.39,328.64,27.57,52.91,27.62
537,400764,-1.34,-0.79,10.98,-0.00,0.00,-0.03,30.50,27.90,974.39,328.68,27.57,52.88,27.62
538,401503,-1.32,-0.81,10.96,-0.00,0.00,-0.03,30.49,27.90,974.39,328.66,27.57,52.89,27.69
539,402242,-1.33,-0.80,10.97,-0.00,0.00,-0.03,30.50,27.90,974.39,328.68,27.57,52.90,27.69
540,402981,-1.33,-0.79,10.94,-0.00,0.00,-0.03,30.48,27.90,974.39,328.68,27.57,52.90,27.69
541,403720,-1.36,-0.76,10.93,-0.00,-0.00,-0.12,30.48,27.90,974.39,328.70,27.57,52.89,27.62
542,404509,0.00,22.17,8.27,-0.32,-3.82,0.00,84.81,27.90,974.39,328.70,27.59,52.88,27.62
543,405248,-1.28,-0.71,10.94,-0.00,-0.00,-0.03,30.47,27.90,974.39,328.72,27.59,52.92,27.62
544,405987,-1.31,-0.84,10.94,-0.00,0.00,-0.03,30.49,27.90,974.39,328.72,27.57,52.88,27.62
545,406726,-1.32,-0.81,10.97,-0.00,-0.07,-0.07,30.48,27.90,974.39,328.72,27.56,52.92,27.69
546,407465,-1.31,-0.82,10.94,-0.00,0.00,-0.12,30.49,27.89,974.38,328.75,27.56,52.88,27.62
547,408204,-1.31,-0.81,10.97,-0.00,0.00,-0.03,30.48,27.89,974.38,328.75,27.57,52.89,27.62
548,408943,-1.32,-0.77,10.97,-0.00,0.00,-0.03,30.47,27.89,974.38,328.75,27.57,52.87,27.62
549,409682,-1.33,-0.81,10.97,-0.00,0.00,-0.03,30.48,27.89,974.38,328.75,27.59,52.90,27.62
550,410421,-1.32,-0.79,10.97,-0.00,0.00,-0.03,30.49,27.89,974.38,328.75,27.57,52.90,27.69
551,411160,-1.33,-0.81,10.95,-0.00,-0.00,-0.03,30.50,27.89,974.38,328.77,27.56,52.90,27.62
552,411899,-1.35,-0.81,10.94,-0.00,0.00,-0.03,30.49,27.89,974.38,328.77,27.57,52.90,27.69
553,412638,-1.34,-0.79,10.95,-0.00,-0.00,-0.03,30.48,27.89,974.38,328.77,27.57,52.84,27.69
554,413377,-1.34,-0.81,10.94,-0.00,0.00,-0.03,30.49,27.89,974.38,328.77,27.57,52.89,27.62
555,414116,-1.34,-0.80,10.97,-0.00,0.00,-0.03,30.49,27.89,974.38,328.77,27.56,52.95,27.62
556,414855,-1.31,-0.79,10.99,-0.01,-0.00,-0.11,30.49,27.89,974.38,328.78,27.56,52.87,27.69
557,415594,-1.31,-0.81,10.95,-0.00,0.00,-0.03,30.49,27.89,974.38,328.80,27.59,52.86,27.69
558,416333,-1.32,-0.79,10.95,-0.00,-0.00,-0.03,30.48,27.89,974.37,328.82,27.57,52.90,27.69
559,417072,-1.34,-0.80,10.96,-0.00,0.00,-0.03,30.50,27.89,974.38,328.80,27.57,52.88,27.69
560,417811,-1.32,-0.78,10.96,-0.00,0.00,-0.03,30.49,27.89,974.37,328.83,27.59,52.88,27.62
561,418550,-1.33,-0.79,10.95,0.00,0.00,-0.03,30.50,27.89,974.37,328.83,27.57,52.91,27.62
562,419289,-2.46,-0.62,-0.62,-0.07,-0.07,-0.07,35.77,27.89,974.37,328.83,27.59,52.89,27.62
563,420078,-1.32,-0.79,10.95,-0.01,0.00,-0.11,30.48,27.89,974.37,328.85,27.57,52.90,27.69
564,420817,-1.33,-0.81,10.94,-0.00,0.00,-0.03,30.48,27.89,974.37,328.83,27.57,52.88,27.69
565,421556,-1.32,-0.80,10.96,-0.00,0.00,-0.03,30.51,27.89,974.37,328.83,27.59,52.92,27.62
566,422295,-1.35,-0.80,10.97,-0.00,0.00,-0.03,30.51,27.89,974.38,328.79,27.59,52.91,27.69
567,423034,-1.34,-0.83,10.96,-0.00,-0.00,-0.07,30.50,27.89,974.38,328.79,27.59,52.91,27.69
568,423773,-1.38,-0.79,10.94,-0.00,0.00,-0.03,30.51,27.89,974.38,328.79,27.56,52.88,27.69
569,424512,-1.40,-0.82,11.03,-0.00,0.00,-0.03,30.47,27.89,974.38,328.79,27.57,52.89,27.69
570,425251,-1.32,-0.81,10.94,-0.00,0.00,-0.03,30.50,27.89,974.38,328.77,27.56,52.88,27.69
571,425990,-1.35,-0.83,10.99,-0.00,0.00,-0.03,30.51,27.89,974.37,328.82,27.57,52.90,27.69
572,426729,-1.31,-0.80,10.95,-0.00,0.00,-0.03,30.51,27.89,974.37,328.81,27.59,52.87,27.69
573,427468,-1.32,-0.82,10.95,-0.00,0.00,-0.03,30.48,27.89,974.37,328.81,27.56,52.89,27.69
574,428207,-1.36,-0.81,-0.62,-0.07,-0.07,-0.07,35.77,27.89,974.37,328.81,27.59,52.90,27.69
575,428946,-1.33,-0.81,10.95,-0.00,-0.00,-0.03,30.50,27.89,974.37,328.82,27.59,52.90,27.69
576,429685,-1.33,-0.80,10.96,-0.00,0.00,-0.03,30.50,27.89,974.37,328.82,27.56,52.89,27.69
577,430424,-1.33,-0.81,10.96,-0.00,0.00,-0.03,30.49,27.89,974.37,328.82,27.54,52.88,27.69
578,431163,-1.34,-0.81,10.95,-0.00,0.00,-0.03,30.50,27.89,974.37,328.85,27.57,52.88,27.69
579,431902,-1.34,-0.81,10.95,-0.00,0.00,-0.03,30.49,27.89,974.37,328.85,27.57,52.86,27.69
580,432641,-1.33,-0.81,10.96,-0.00,0.00,-0.03,30.50,27.89,974.37,328.85,27.57,52.89,27.62
581,433380,-1.33,-0.79,10.97,-0.00,0.00,-0.03,30.48,27.89,974.37,328.86,27.56,52.89,27.69
582,434119,-1.34,-0.80,10.94,-0.00,0.00,-0.03,30.51,27.89,974.37,328.86,27.56,52.87,27.69
583,434858,-1.35,-0.79,10.96,-0.00,0.00,-0.03,30.49,27.89,974.37,328.88,27.54,52.87,27.69
584,435597,-1.35,-0.81,10.96,-0.00,0.00,-0.03,30.50,27.89,974.36,328.90,27.57,52.88,27.62
585,436336,-1.33,-0.81,10.93,-0.00,0.00,-0.03,30.48,27.89,974.36,328.92,27.56,52.88,27.69
586,437075,-1.34,-0.80,10.97,-0.00,0.00,-0.03,30.50,27.89,974.36,328.95,27.57,52.88,27.69
587,437814,-1.32,-0.81,10.94,-0.00,0.00,-0.03,30.47,27.89,974.36,328.95,27.54,52.89,27.69
588,438553,-1.34,-0.80,10.97,-0.00,0.00,-0.03,30.49,27.89,974.36,328.96,27.56,52.88,27.69
589,439292,-1.33,-0.81,10.95,-0.00,0.00,-0.03,30.49,27.89,974.36,328.96,27.56,52.89,27.69
590,440031,-1.32,-0.80,10.96,-0.00,-0.00,-0.03,30.50,27.89,974.36,328.95,27.54,52.87,27.69
591,440770,-1.33,-0.80,10.95,-0.00,0.00,-0.03,30.49,27.89,974.36,328.95,27.54,52.87,27.69
592,441509,-1.35,-0.79,10.96,-0.00,-0.00,-0.03,30.47,27.89,974.36,328.96,27.56,52.88,27.69
593,442248,-1.34,-0.81,10.96,-0.00,0.00,-0.03,30.47,27.89,974.36,328.95,27.56,52.90,27.69
594,442987,-1.33,-0.79,10.94,-0.00,0.00,-0.12,30.48,27.89,974.36,328.92,27.57,52.88,27.62
595,443726,-1.32,-0.80,10.96,-0.00,0.00,-0.03,30.46,27.89,974.36,328.92,27.54,52.87,27.69
596,444465,-1.34,-0.80,10.93,-0.00,0.00,-0.03,30.49,27.89,974.36,328.93,27.56,52.89,27.62
597,445204,-1.32,-0.81,10.95,-0.00,0.00,-0.03,30.48,27.89,974.36,328.97,27.54,52.90,27.69
598,445943,-1.33,-0.80,10.95,-0.00,0.00,-0.03,30.48,27.89,974.36,328.97,27.53,52.85,27.69
599,446683,-1.32,-0.80,10.98,-0.01,0.00,-0.12,30.48,27.89,974.36,328.95,27.56,52.90,27.69
600,447473,-2.65,-1.58,21.91,-0.00,0.00,-0.03,30.49,27.89,974.36,328.95,27.54,52.87,27.69
601,448212,-1.34,-0.80,10.92,-0.00,0.00,-0.03,30.48,27.89,974.36,328.94,27.54,52.91,27.69
602,448951,-1.34,-0.80,10.95,-0.00,0.00,-0.03,30.49,27.88,974.36,328.97,27.56,52.82,27.69
603,449690,-1.32,-1.23,-0.62,-0.07,-0.07,-0.07,35.77,27.88,974.36,328.96,27.52,52.87,27.69
604,450429,-1.35,-0.81,10.97,-0.00,0.00,-0.03,30.47,27.88,974.36,328.92,27.52,52.86,27.69
605,451168,-1.34,-0.80,10.95,-0.00,0.00,-0.03,30.47,27.88,974.36,328.90,27.52,52.89,27.62
606,451907,-1.35,-0.79,10.93,-0.07,-0.14,-0.14,30.47,27.88,974.36,328.90,27.52,52.87,27.69
607,452646,-1.34,-0.82,10.94,-0.00,0.00,-0.03,30.47,27.88,974.36,328.92,27.53,52.87,27.62
608,453385,-1.35,-0.79,10.97,-0.00,0.00,-0.03,30.47,27.88,974.36,328.92,27.50,52.90,27.69
609,454124,-1.33,-0.82,10.93,-0.00,0.00,-0.03,30.47,27.88,974.36,328.94,27.52,52.85,27.62
610,454863,-1.34,-0.79,10.98,0.00,0.00,-0.03,30.46,27.88,974.36,328.94,27.53,52.85,27.69
611,455602,-1.33,-0.78,10.94,-0.00,0.00,-0.03,30.48,27.88,974.36,328.91,27.53,52.87,27.62
612,456341,-1.33,-0.80,10.94,-0.00,-0.07,-0.07,30.48,27.88,974.36,328.89,27.54,52.85,27.69
613,457080,-1.33,-0.80,10.95,-0.00,0.00,-0.03,30.48,27.88,974.37,328.88,27.52,52.87,27.69
614,457819,-1.34,-0.79,10.95,-0.00,0.00,-0.03,30.48,27.88,974.37,328.88,27.53,52.86,27.62
615,458558,-1.34,-0.80,10.95,-0.00,0.00,-0.03,30.46,27.88,974.37,328.87,27.53,52.89,27.69
616,459297,-1.33,-0.78,10.97,-0.00,0.00,-0.03,30.47,27.88,974.37,328.85,27.52,52.86,27.69
617,460036,-1.34,-0.79,10.95,-0.00,0.00,-0.03,30.47,27.88,974.37,328.86,27.56,52.87,27.69
618,460775,-1.35,-0.81,10.96,-0.07,-0.14,-0.14,30.43,27.88,974.37,328.84,27.53,52.88,27.69
619,461514,-1.34,-0.80,10.95,-0.00,0.00,-0.03,30.48,27.88,974.37,328.81,27.53,52.83,27.69
620,462253,-1.35,-0.81,10.93,-0.00,0.00,-0.03,30.49,27.88,974.37,328.83,27.54,52.89,27.69
621,462992,-1.32,-0.79,10.94,-0.00,0.00,-0.03,30.48,27.88,974.37,328.86,27.52,52.86,27.62
622,463731,-1.31,-0.80,10.98,-0.00,-0.00,-0.03,30.46,27.88,974.37,328.85,27.54,52.89,27.69
623,464470,-1.32,-0.82,10.97,-0.01,0.01,-0.11,30.49,27.88,974.37,328.86,27.52,52.85,27.62
624,465209,-1.35,-0.80,10.96,-0.00,0.00,-0.03,30.47,27.88,974.37,328.83,27.53,52.88,27.69
625,465948,-1.36,-0.80,10.94,-0.01,0.00,-0.11,30.49,27.88,974.37,328.82,27.50,52.87,27.69
626,466687,-1.34,-0.82,10.97,-0.00,-0.00,-0.03,30.47,27.88,974.38,328.80,27.52,52.86,27.69
627,467426,-1.33,-0.80,10.93,-0.00,0.00,-0.03,30.47,27.88,974.38,328.79,27.52,52.85,27.69
628,468165,-1.35,-0.81,10.95,-0.00,0.00,-0.03,30.49,27.88,974.38,328.77,27.52,52.86,27.69
629,468955,-2.68,-1.59,21.95,-0.00,-0.07,-0.07,30.48,27.88,974.38,328.76,27.50,52.86,27.69
630,469694,-1.34,-0.80,10.99,-0.00,0.00,-0.03,30.47,27.88,974.38,328.76,27.53,52.86,27.69
631,470433,-1.34,-0.79,10.97,-0.00,0.00,-0.03,30.48,27.88,974.38,328.74,27.52,52.86,27.69
632,471172,-1.34,-0.81,10.95,-0.00,0.00,-0.03,30.48,27.88,974.38,328.74,27.52,52.82,27.62
633,471911,-1.35,-0.80,10.99,-0.00,0.00,-0.03,30.48,27.88,974.38,328.76,27.52,52.87,27.69
634,472650,-1.34,-0.81,10.96,-0.00,0.00,-0.03,30.49,27.88,974.39,328.72,27.54,52.86,27.69
635,473389,-1.33,-0.79,10.93,-0.00,0.00,-0.03,30.49,27.88,974.39,328.72,27.52,52.85,27.69
636,474128,-1.32,-0.80,10.94,-0.00,0.00,-0.03,30.49,27.88,974.38,328.74,27.52,52.87,27.69
637,474867,-1.35,-0.80,10.92,-0.00,0.00,-0.12,30.50,27.88,974.38,328.74,27.53,52.89,27.69
638,475606,-1.34,-0.81,10.95,-0.00,-0.00,-0.03,30.50,27.88,974.38,328.75,27.52,52.87,27.69
639,476345,-1.35,-0.80,10.93,-0.00,0.00,-0.03,30.51,27.88,974.38,328.76,27.53,52.87,27.69
640,477084,-1.34,-0.80,10.98,-0.07,-0.07,-0.07,30.47,27.88,974.38,328.78,27.52,52.86,27.69
641,477823,-1.33,-0.80,10.97,-0.00,0.00,-0.03,30.50,27.88,974.38,328.78,27.54,52.91,27.69
642,478562,-1.34,-0.79,10.98,-0.00,0.00,-0.03,30.51,27.88,974.38,328.76,27.52,52.84,27.62
643,479301,-1.33,-0.82,10.95,-0.00,0.00,-0.03,30.50,27.88,974.38,328.76,27.54,52.85,27.69
644,480089,0.00,22.17,8.27,-0.32,-3.82,0.00,84.81,27.88,974.38,328.76,27.53,52.84,27.69
645,480828,-1.33,-0.80,10.97,-0.00,0.00,-0.03,30.53,27.88,974.38,328.76,27.52,52.83,27.62
646,481567,-1.34,-0.80,10.95,-0.00,0.00,-0.03,30.52,27.88,974.38,328.77,27.52,52.83,27.62
647,482306,-1.33,-0.81,10.96,-0.00,0.00,-0.03,30.50,27.89,974.39,328.72,27.52,52.89,27.69
648,483045,-1.34,-0.79,10.96,-0.00,-0.00,-0.03,30.50,27.89,974.39,328.72,27.53,52.85,27.69
649,483784,-1.34,-0.79,10.97,-0.00,0.00,-0.03,30.49,27.89,974.39,328.72,27.52,52.85,27.69
650,484523,-1.35,-0.80,10.94,-0.00,0.00,-0.03,30.51,27.89,974.38,328.74,27.52,52.87,27.69
651,485262,-1.32,-0.79,10.93,-0.00,0.00,-0.03,30.51,27.89,974.38,328.75,27.53,52.84,27.69
652,486001,-1.32,-0.81,10.98,-0.00,0.00,-0.03,30.52,27.89,974.38,328.77,27.52,52.86,27.69
653,486740,-1.36,-0.79,10.97,-0.00,0.00,-0.03,30.52,27.89,974.38,328.77,27.53,52.82,27.62
654,487479,-1.32,-0.81,10.98,-0.00,0.00,-0.03,30.51,27.89,974.38,328.73,27.52,52.86,27.69
655,488218,-1.34,-0.79,10.95,-0.00,0.00,-0.03,30.52,27.89,974.38,328.75,27.53,52.86,27.69
656,488957,-1.33,-0.80,10.94,-0.00,0.00,-0.03,30.52,27.89,974.38,328.76,27.53,52.85,27.69
657,489696,-1.34,-0.81,10.96,-0.00,0.00,-0.03,30.51,27.89,974.38,328.77,27.52,52.84,27.69
658,490435,-1.35,-0.81,10.93,-0.00,0.00,-0.03,30.52,27.89,974.38,328.79,27.54,52.83,27.69
659,491174,-1.34,-0.80,10.93,-0.00,-0.00,-0.03,30.53,27.89,974.38,328.79,27.54,52.83,27.69
660,491913,-1.35,-0.79,10.93,-0.00,0.00,-0.03,30.52,27.89,974.38,328.79,27.53,52.85,27.69
661,492652,-1.34,-0.78,10.93,-0.00,0.00,-0.03,30.52,27.89,974.38,328.80,27.53,52.87,27.69
662,493391,-1.33,-0.81,10.97,-0.00,0.00,-0.03,30.51,27.89,974.38,328.80,27.53,52.85,27.69
663,494130,-1.33,-0.82,10.96,-0.00,-0.07,-0.07,30.51,27.89,974.38,328.77,27.54,52.87,27.69
664,494869,-1.34,-0.79,10.96,-0.00,0.00,-0.03,30.53,27.89,974.38,328.78,27.54,52.88,27.69
665,495608,-1.35,-0.81,10.99,-0.00,0.00,-0.03,30.53,27.89,974.38,328.78,27.54,52.81,27.69
666,496347,-1.33,-0.79,10.96,-0.00,0.00,-0.03,30.52,27.89,974.37,328.81,27.53,52.87,27.69
667,497086,-1.33,-0.81,10.93,-0.00,-0.00,-0.03,30.54,27.89,974.37,328.83,27.56,52.85,27.69
668,497825,-2.66,-1.58,21.91,-0.00,0.00,-0.03,30.52,27.89,974.37,328.84,27.53,52.83,27.69
669,498564,-1.33,-0.81,10.94,-0.00,-0.00,-0.00,30.53,27.89,974.37,328.84,27.54,52.82,27.69
670,499303,-1.35,-0.80,10.95,-0.00,0.00,-0.03,30.53,27.89,974.37,328.84,27.56,52.83,27.69
671,500042,-1.33,-0.81,10.98,-0.01,0.00,-0.12,30.52,27.89,974.37,328.84,27.54,52.86,27.69
672,500781,-1.35,-0.81,10.95,-0.00,0.00,-0.03,30.51,27.89,974.38,328.81,27.54,52.81,27.69
673,501520,-1.34,-0.78,10.98,-0.00,0.00,-0.03,30.52,27.89,974.37,328.82,27.56,52.86,27.69
674,502259,-1.32,-0.82,10.96,-0.00,0.00,-0.03,30.52,27.89,974.37,328.82,27.56,52.83,27.69
675,502998,-1.35,-0.80,10.93,-0.00,-0.07,-0.07,30.53,27.89,974.37,328.82,27.53,52.86,27.69
676,503737,-1.33,-0.80,10.96,-0.00,0.00,-0.03,30.52,27.89,974.37,328.82,27.53,52.87,27.69
677,504476,-1.34,-0.80,10.97,-0.00,0.00,-0.03,30.54,27.89,974.37,328.82,27.52,52.81,27.69
678,505215,-1.32,-0.79,10.99,-0.00,0.00,-0.03,30.52,27.89,974.37,328.84,27.54,52.87,27.69
679,505954,-1.36,-0.80,10.97,-0.00,-0.07,-0.14,30.53,27.89,974.37,328.84,27.54,52.85,27.69
680,506693,-1.36,-0.80,11.00,-0.00,0.00,-0.03,30.51,27.89,974.37,328.83,27.53,52.84,27.69
681,507432,-1.33,-0.80,10.96,-0.00,0.00,-0.03,30.52,27.89,974.37,328.83,27.56,52.77,27.69
682,508171,-1.35,-0.81,10.96,-0.00,0.00,-0.03,30.51,27.89,974.38,328.79,27.53,52.82,27.69
683,508910,-1.35,-0.80,10.97,-0.00,0.00,-0.03,30.54,27.89,974.37,328.84,27.53,52.83,27.69
684,509649,-1.36,-0.81,10.93,-0.00,0.00,-0.03,30.52,27.89,974.37,328.81,27.50,52.87,27.69
685,510388,-1.33,-0.81,10.93,-0.00,0.00,-0.03,30.52,27.89,974.37,328.81,27.52,52.84,27.62
686,511127,-1.33,-0.80,10.97,-0.00,-0.00,-0.03,30.52,27.89,974.38,328.80,27.52,52.83,27.62
687,511866,-1.34,-0.79,10.94,-0.00,0.00,-0.03,30.51,27.89,974.38,328.78,27.52,52.81,27.62
688,512605,-1.33,-0.79,10.95,-0.00,-0.07,-0.07,30.52,27.89,974.38,328.77,27.52,52.84,27.62
689,513344,-1.35,-0.82,10.97,-0.00,0.00,-0.03,30.49,27.89,974.38,328.77,27.53,52.85,27.69
690,514083,-1.33,-0.81,10.96,-0.00,0.00,-0.03,30.50,27.89,974.38,328.75,27.49,52.83,27.69
691,514822,-1.33,-0.79,10.95,-0.00,0.00,-0.03,30.49,27.89,974.38,328.79,27.50,52.84,27.69
692,515561,-1.33,-0.80,10.99,-0.00,0.00,-0.03,30.49,27.89,974.38,328.79,27.50,52.83,27.69
693,516300,-1.33,-0.80,10.96,-0.00,0.00,-0.00,30.48,27.89,974.38,328.80,27.52,52.85,27.69
694,517039,-1.34,-0.80,10.94,-0.00,0.00,-0.03,30.49,27.89,974.38,328.80,27.52,52.81,27.69
695,517778,-1.34,-0.80,10.97,-0.00,-0.00,-0.03,30.52,27.89,974.37,328.82,27.49,52.85,27.69
696,518517,-1.35,-0.80,10.97,-0.00,0.00,-0.03,30.51,27.89,974.37,328.82,27.50,52.80,27.69
697,519256,-1.35,-0.79,10.96,-0.00,0.00,-0.03,30.52,27.89,974.37,328.85,27.47,52.79,27.62
698,519995,-1.33,-0.80,10.96,-0.00,0.00,-0.03,30.49,27.89,974.37,328.85,27.49,52.81,27.69
699,520734,-2.46,-0.62,-0.62,-0.07,-0.07,-0.07,35.77,27.89,974.37,328.84,27.50,52.80,27.69
700,521473,-1.34,-0.78,10.97,-0.00,0.00,-0.03,30.50,27.89,974.37,328.84,27.47,52.81,27.69
701,522212,-1.33,-0.80,10.98,-0.00,0.00,-0.03,30.50,27.88,974.37,328.89,27.49,52.81,27.69
702,522951,-1.35,-0.83,10.96,-0.00,0.00,-0.03,30.50,27.88,974.36,328.90,27.49,52.81,27.69
703,523690,-1.34,-0.81,10.93,-0.00,0.00,-0.03,30.50,27.88,974.36,328.92,27.47,52.84,27.69
704,524429,-1.36,-0.80,10.97,-0.00,0.00,-0.03,30.49,27.88,974.36,328.92,27.47,52.82,27.69
705,525168,-1.35,-0.79,10.96,-0.00,0.00,-0.03,30.51,27.88,974.35,328.98,27.49,52.83,27.69
706,525907,-1.33,-0.80,10.98,-0.00,0.00,-0.03,30.49,27.88,974.36,328.97,27.49,52.82,27.69
707,526646,-1.34,-0.81,10.95,-0.00,0.00,-0.03,30.50,27.88,974.36,328.97,27.47,52.83,27.69
708,527434,0.00,22.17,8.27,-0.32,-3.82,0.00,84.81,27.88,974.36,328.95,27.47,52.85,27.69
709,528224,-2.64,-1.58,21.93,-0.00,0.00,-0.03,30.49,27.88,974.36,328.95,27.49,52.87,27.69
710,528963,-1.34,-0.81,10.96,-0.00,0.00,-0.03,30.49,27.88,974.36,328.97,27.49,52.80,27.69
711,529753,-2.71,-1.63,21.91,-0.00,-0.00,-0.03,30.49,27.88,974.35,329.00,27.50,52.82,27.62
712,530492,-1.33,-0.81,10.94,-0.00,0.00,-0.03,30.50,27.88,974.35,328.99,27.47,52.84,27.69
713,531280,0.00,22.17,8.27,-0.32,-3.82,0.00,84.81,27.88,974.35,328.99,27.49,52.84,27.69
714,532019,-1.33,-0.80,10.96,-0.00,0.00,-0.03,30.49,27.88,974.35,329.00,27.50,52.81,27.69
715,532758,-1.32,-0.79,10.93,-0.00,0.00,-0.03,30.51,27.88,974.35,329.01,27.49,52.78,27.69
716,533497,-1.36,-0.80,10.96,0.00,0.00,-0.03,30.50,27.88,974.35,329.04,27.50,52.81,27.69
717,534236,-1.35,-0.81,10.97,-0.00,0.00,-0.00,30.49,27.88,974.35,329.04,27.50,52.81,27.75
718,534975,-1.34,-0.79,10.96,-0.00,0.00,-0.03,30.50,27.88,974.35,329.06,27.49,52.80,27.69
719,535714,-1.33,-0.80,10.95,-0.00,0.00,-0.03,30.47,27.88,974.35,329.06,27.52,52.84,27.75
720,536453,-1.35,-0.81,10.94,-0.00,0.00,-0.03,30.49,27.88,974.34,329.09,27.50,52.84,27.69
721,537192,-1.34,-0.81,10.95,-0.00,0.00,-0.03,30.51,27.88,974.34,329.09,27.50,52.84,27.69
722,537931,-1.36,-0.81,10.96,-0.00,0.00,-0.03,30.49,27.88,974.34,329.11,27.49,52.81,27.69
723,538719,0.00,22.17,8.27,-0.32,-3.82,0.00,84.81,27.88,974.34,329.11,27.50,52.84,27.75
724,539458,-1.35,-0.81,10.96,-0.00,0.00,-0.00,30.49,27.88,974.34,329.11,27.50,52.82,27.75
725,540197,-1.34,-0.80,10.95,-0.00,0.00,-0.03,30.49,27.88,974.34,329.12,27.49,52.82,27.75
726,540936,-1.35,-0.79,10.99,-0.00,0.00,-0.03,30.49,27.88,974.34,329.12,27.52,52.83,27.69
727,541674,-1.34,-0.79,10.95,-0.00,0.00,-0.03,30.47,27.88,974.34,329.12,27.50,52.79,27.69
728,542414,-1.33,-0.81,10.95,-0.00,-0.07,-0.07,30.50,27.88,974.34,329.13,27.52,52.79,27.75
729,543153,-1.34,-0.80,10.94,-0.00,0.00,-0.03,30.50,27.88,974.34,329.15,27.49,52.79,27.75
730,543892,-1.35,-0.81,10.96,-0.07,-0.07,-0.07,30.49,27.88,974.34,329.10,27.52,52.81,27.69
731,544631,-1.34,-0.79,10.95,-0.00,0.00,-0.03,30.50,27.88,974.34,329.12,27.52,52.83,27.69
732,545370,-1.33,-0.80,10.95,-0.00,0.00,-0.03,30.52,27.88,974.34,329.13,27.52,52.81,27.69
733,546108,-1.35,-0.80,10.96,-0.00,0.00,-0.03,30.49,27.88,974.34,329.13,27.52,52.81,27.69
734,546848,-1.33,-0.80,10.97,-0.00,0.00,-0.03,30.49,27.88,974.34,329.10,27.53,52.81,27.69
735,547587,-1.34,-0.79,10.95,-0.00,0.00,-0.03,30.50,27.88,974.34,329.08,27.52,52.81,27.69
736,548326,-1.35,-0.79,10.97,-0.00,-0.00,-0.03,30.52,27.88,974.34,329.08,27.52,52.83,27.69
737,549065,-1.34,-0.81,10.95,-0.00,0.00,-0.03,30.49,27.88,974.34,329.07,27.50,52.79,27.75
738,549804,-1.35,-0.79,10.95,-0.00,-0.00,-0.03,30.50,27.88,974.34,329.08,27.52,52.79,27.69
739,550543,-1.32,-0.80,10.95,-0.00,0.00,-0.03,30.49,27.88,974.34,329.08,27.52,52.83,27.69
740,551282,-1.33,-0.80,10.99,-0.00,0.00,-0.03,30.50,27.88,974.34,329.10,27.50,52.83,27.69
741,552021,-1.35,-0.79,10.99,-0.00,0.00,-0.03,30.50,27.88,974.34,329.11,27.52,52.83,27.69
742,552760,-2.46,-0.62,-0.62,-0.07,-0.07,-0.07,35.77,27.88,974.34,329.14,27.53,52.81,27.69
743,553498,-1.34,-0.79,10.97,-0.00,0.00,-0.03,30.49,27.88,974.33,329.15,27.52,52.84,27.69
744,554237,-1.33,-0.81,10.93,-0.00,0.00,-0.03,30.51,27.88,974.33,329.17,27.53,52.80,27.69
745,554977,-1.34,-0.82,10.94,-0.00,0.00,-0.03,30.50,27.88,974.33,329.19,27.52,52.81,27.69
746,555716,-1.35,-0.79,10.96,-0.07,-0.07,-0.07,30.49,27.88,974.33,329.20,27.50,52.81,27.69
747,556455,-1.34,-0.80,10.95,-0.00,0.00,-0.03,30.52,27.88,974.33,329.20,27.52,52.79,27.69
748,557194,-1.34,-0.81,10.97,-0.00,0.00,-0.03,30.49,27.88,974.33,329.20,27.52,52.81,27.69
749,557933,-1.35,-0.79,10.95,-0.00,0.00,-0.03,30.52,27.88,974.33,329.19,27.50,52.81,27.69
750,558672,-1.33,-0.80,10.95,-0.00,0.00,-0.03,30.51,27.88,974.33,329.20,27.49,52.81,27.69
751,559411,-1.33,-0.83,10.95,-0.00,0.00,-0.03,30.49,27.88,974.33,329.20,27.49,52.81,27.69
752,560150,-1.32,-0.80,10.95,-0.00,0.00,-0.03,30.50,27.88,974.33,329.20,27.49,52.80,27.69
753,560889,-1.34,-0.80,10.95,-0.00,0.00,-0.03,30.49,27.88,974.33,329.22,27.52,52.83,27.69
754,561628,-1.34,-0.81,10.95,-0.07,-0.07,-0.07,30.45,27.88,974.33,329.22,27.50,52.84,27.69
755,562367,-1.33,-0.81,10.93,-0.00,0.00,-0.03,30.49,27.88,974.33,329.21,27.50,52.79,27.69
756,563106,-1.34,-0.81,10.94,-0.00,0.00,-0.03,30.47,27.87,974.32,329.24,27.52,52.81,27.69
757,563845,-1.33,-0.79,10.95,-0.00,0.01,-0.12,30.47,27.87,974.33,329.21,27.53,52.83,27.69
758,564584,-1.34,-0.80,10.94,-0.00,0.00,-0.03,30.48,27.87,974.33,329.23,27.52,52.79,27.69
759,565323,-1.34,-0.80,10.93,-0.00,-0.00,-0.03,30.50,27.87,974.32,329.28,27.52,52.83,27.69
760,566111,0.00,22.17,8.27,-0.32,-3.82,0.00,84.81,27.87,974.32,329.28,27.52,52.81,27.69
761,566850,-1.34,-0.80,10.92,-0.00,0.00,-0.03,30.49,27.87,974.32,329.25,27.50,52.79,27.69
762,567589,-1.32,-0.81,10.97,-0.00,-0.00,-0.03,30.51,27.87,974.32,329.25,27.52,52.82,27.69
763,568328,-1.34,-0.80,10.99,-0.00,0.00,-0.03,30.49,27.87,974.32,329.26,27.50,52.79,27.69
764,569067,-1.34,-0.81,10.98,-0.01,0.00,-0.12,30.49,27.87,974.32,329.26,27.52,52.81,27.69
765,569806,-1.33,-0.79,10.94,-0.00,0.00,-0.03,30.49,27.87,974.33,329.23,27.52,52.81,27.69
766,570545,-1.34,-0.81,10.95,-0.00,0.00,-0.03,30.50,27.87,974.33,329.23,27.50,52.81,27.69
767,571284,-1.33,-0.79,10.97,-0.00,0.00,-0.03,30.50,27.87,974.33,329.22,27.53,52.78,27.62
768,572023,-1.34,-0.81,10.97,-0.00,0.00,-0.03,30.50,27.87,974.33,329.22,27.52,52.79,27.69
769,572762,-1.33,-0.80,10.98,-0.00,0.00,-0.03,30.49,27.87,974.33,329.23,27.52,52.79,27.69
770,573500,-1.33,-0.80,10.96,-0.00,0.00,-0.03,30.50,27.87,974.33,329.19,27.52,52.81,27.69
771,574240,-1.34,-0.80,10.96,-0.00,0.00,-0.03,30.49,27.87,974.33,329.21,27.52,52.80,27.69
772,574979,-1.35,-0.78,10.97,-0.00,0.00,-0.00,30.50,27.87,974.33,329.20,27.52,52.77,27.69
773,575718,-1.33,-0.80,10.95,-0.00,0.00,-0.03,30.49,27.87,974.33,329.17,27.50,52.83,27.69
774,576457,-1.34,-0.80,10.96,-0.00,-0.00,-0.00,30.50,27.87,974.33,329.15,27.49,52.78,27.69
775,577196,-1.35,-0.81,10.95,-0.00,0.00,-0.03,30.48,27.87,974.33,329.15,27.52,52.80,27.69
776,577935,-1.32,-0.81,10.97,-0.00,-0.00,-0.03,30.50,27.87,974.33,329.15,27.50,52.78,27.69
777,578674,-1.34,-0.80,10.98,-0.00,0.00,-0.03,30.49,27.87,974.33,329.15,27.47,52.78,27.69
778,579413,-1.34,-0.82,10.93,-0.00,0.00,-0.00,30.49,27.87,974.34,329.14,27.47,52.79,27.69
779,580152,-1.31,-0.80,11.00,-0.00,0.00,-0.03,30.48,27.87,974.34,329.12,27.52,52.79,27.69
780,580891,-1.34,-0.81,10.97,-0.00,0.00,-0.03,30.50,27.86,974.33,329.16,27.50,52.79,27.69
781,581630,-1.35,-0.80,10.95,-0.00,0.00,-0.03,30.51,27.86,974.34,329.13,27.52,52.77,27.69
782,582369,-1.34,-0.80,10.97,-0.00,0.00,-0.03,30.49,27.86,974.34,329.12,27.47,52.79,27.69
783,583108,-1.35,-0.80,10.97,-0.00,0.00,-0.03,30.49,27.86,974.34,329.12,27.50,52.79,27.62
784,583847,-1.33,-0.80,10.98,-0.00,0.00,-0.03,30.49,27.86,974.34,329.12,27.50,52.78,27.69
785,584586,-1.33,-0.78,10.95,-0.00,0.01,-0.12,30.48,27.86,974.34,329.12,27.52,52.79,27.69
786,585325,-1.35,-0.80,10.97,-0.00,0.00,-0.03,30.50,27.86,974.34,329.13,27.50,52.79,27.69
787,586064,-1.32,-0.81,10.97,-0.00,0.00,-0.03,30.49,27.86,974.34,329.15,27.52,52.81,27.69
788,586803,-1.33,-0.80,10.98,-0.00,0.00,-0.03,30.49,27.86,974.33,329.18,27.50,52.79,27.69
789,587542,-1.33,-0.79,10.95,-0.00,0.00,-0.03,30.50,27.86,974.33,329.19,27.50,52.81,27.69
790,588281,-1.33,-0.80,10.96,-0.00,0.00,-0.03,30.48,27.86,974.33,329.21,27.49,52.76,27.69
791,589020,-1.34,-0.80,10.97,-0.00,0.00,-0.03,30.50,27.86,974.33,329.22,27.49,52.77,27.69
792,589759,-1.34,-0.80,10.94,-0.07,-0.07,-0.07,30.49,27.86,974.33,329.23,27.50,52.79,27.69
793,590498,-1.36,-0.80,10.98,-0.00,-0.07,-0.07,30.51,27.86,974.33,329.23,27.50,52.79,27.69
794,591237,-1.34,-0.83,10.96,-0.00,0.00,-0.03,30.49,27.86,974.33,329.23,27.52,52.76,27.69
795,591976,-1.32,-0.80,10.96,-0.00,0.00,-0.03,30.51,27.86,974.33,329.23,27.50,52.75,27.62
796,592715,-1.34,-0.78,10.94,-0.00,0.00,-0.03,30.50,27.86,974.32,329.25,27.50,52.79,27.69
797,593454,-1.33,-0.79,10.95,-0.00,0.00,-0.03,30.47,27.86,974.32,329.26,27.50,52.75,27.69
798,594193,-1.34,-0.79,10.98,-0.00,0.00,-0.03,30.50,27.86,974.32,329.26,27.52,52.76,27.69
799,594932,-1.34,-0.81,10.97,-0.00,0.00,-0.03,30.51,27.86,974.32,329.26,27.52,52.77,27.62
800,595671,-1.35,-0.80,10.95,-0.00,0.00,-0.03,30.49,27.86,974.32,329.26,27.52,52.79,27.69
801,596410,-1.35,-0.81,10.93,0.00,0.00,-0.03,30.49,27.86,974.32,329.28,27.50,52.76,27.69
802,597149,-1.34,-0.79,10.98,-0.00,0.00,-0.03,30.50,27.86,974.32,329.29,27.50,52.76,27.69
803,597888,-1.34,-0.81,10.99,-0.00,0.00,-0.03,30.52,27.87,974.32,329.27,27.53,52.76,27.69
804,598627,-1.34,-0.79,10.96,-0.00,0.00,-0.03,30.50,27.87,974.32,329.28,27.52,52.81,27.69
805,599366,-1.34,-0.80,11.00,-0.00,-0.27,-0.27,30.51,27.87,974.32,329.30,27.52,52.81,27.69
806,600105,-1.35,-0.78,10.95,-0.07,-0.07,-0.07,35.77,27.87,974.32,329.28,27.52,52.81,27.69
807,600844,-1.33,-0.79,10.94,-0.00,0.00,-0.03,30.51,27.87,974.32,329.26,27.52,52.77,27.69
808,601583,-1.34,-0.79,10.95,-0.00,0.00,-0.03,30.50,27.87,974.32,329.28,27.52,52.79,27.69
809,602322,-1.34,-0.80,10.96,-0.00,0.00,-0.03,30.51,27.87,974.32,329.28,27.52,52.77,27.69
810,603061,-1.36,-0.80,10.96,-0.00,0.00,-0.03,30.51,27.87,974.32,329.29,27.53,52.78,27.69
811,603800,-1.35,-0.80,10.94,-0.00,0.00,-0.03,30.50,27.87,974.32,329.29,27.53,52.75,27.69
812,604538,-1.33,-0.80,10.98,-0.00,0.00,-0.03,30.52,27.87,974.32,329.28,27.53,52.78,27.69
813,605277,-1.36,-0.82,10.96,-0.00,-0.07,-0.07,30.51,27.87,974.32,329.29,27.52,52.77,27.69
814,606017,-1.34,-0.80,10.94,-0.00,0.00,-0.03,30.48,27.87,974.32,329.30,27.53,52.78,27.69
815,606805,0.00,22.17,8.27,-0.32,-3.82,0.00,84.81,27.87,974.32,329.32,27.53,52.77,27.69
816,607544,-2.69,-1.60,21.93,-0.00,-0.07,-0.07,30.49,27.87,974.32,329.32,27.52,52.79,27.69
817,608283,-1.35,-0.80,10.95,-0.00,-0.00,-0.03,30.47,27.87,974.31,329.33,27.53,52.76,27.69
818,609022,-1.33,-0.82,10.98,-0.00,0.00,-0.03,30.51,27.87,974.32,329.31,27.50,52.76,27.69
819,609761,-1.34,-0.79,10.95,-0.00,0.00,-0.03,30.49,27.87,974.31,329.33,27.50,52.79,27.69
820,610500,-1.33,-0.79,10.99,-0.00,0.00,-0.03,30.52,27.87,974.31,329.33,27.52,52.77,27.69
821,611239,-1.35,-0.80,10.96,-0.00,0.00,-0.03,30.50,27.87,974.31,329.33,27.52,52.76,27.69
822,611978,-1.35,-0.81,10.94,-0.00,0.00,-0.03,30.51,27.87,974.31,329.34,27.52,52.76,27.69
823,612717,-1.34,-0.80,10.95,-0.00,0.00,-0.03,30.51,27.87,974.31,329.34,27.52,52.79,27.69
824,613505,0.00,22.17,8.27,-0.32,-3.82,0.00,84.81,27.87,974.31,329.37,27.53,52.76,27.69
825,614244,-1.33,-0.81,10.95,-0.00,0.00,-0.00,30.50,27.88,974.31,329.34,27.52,52.77,27.69
826,614983,-1.33,-0.79,10.94,-0.00,0.00,-0.03,30.48,27.88,974.31,329.35,27.54,52.75,27.69
827,615722,-1.32,-0.80,10.94,-0.00,0.00,-0.03,30.50,27.88,974.31,329.35,27.53,52.76,27.69
828,616461,-1.35,-0.75,10.93,-0.00,-0.00,-0.03,30.52,27.88,974.31,329.34,27.52,52.80,27.69
829,617200,-1.30,-0.75,10.92,-0.00,0.00,-0.03,30.52,27.88,974.31,329.35,27.53,52.77,27.69
830,617939,-1.33,-0.79,10.97,-0.00,0.00,-0.03,30.52,27.88,974.31,329.35,27.54,52.79,27.69
831,618678,-1.34,-0.82,10.96,-0.00,0.01,-0.11,30.52,27.88,974.31,329.35,27.49,52.79,27.69
832,619417,-1.35,-0.77,10.96,-0.00,0.00,-0.03,30.51,27.88,974.31,329.36,27.53,52.76,27.69
833,620155,-1.34,-0.81,10.98,-0.00,0.00,-0.03,30.50,27.88,974.31,329.37,27.52,52.80,27.69
834,620895,-1.34,-0.78,10.96,-0.00,0.00,-0.03,30.50,27.88,974.31,329.37,27.54,52.77,27.69
835,621634,-1.31,-0.82,10.97,-0.00,0.00,-0.03,30.51,27.88,974.31,329.36,27.52,52.77,27.69
836,622373,-1.33,-0.79,10.95,-0.00,0.00,-0.03,30.51,27.88,974.31,329.37,27.52,52.75,27.69
837,623112,-1.32,-0.75,10.91,-0.00,0.00,-0.03,30.52,27.88,974.31,329.37,27.54,52.76,27.69
838,623851,-1.34,-0.79,10.95,-0.00,0.00,-0.03,30.52,27.88,974.31,329.39,27.52,52.76,27.69
839,624590,-1.32,-0.81,10.96,0.00,-0.00,-0.03,30.53,27.88,974.31,329.39,27.54,52.77,27.69
840,625329,-1.35,-0.81,10.94,-0.07,-0.07,-0.07,25.98,27.88,974.31,329.38,27.53,52.75,27.69
841,626068,-1.34,-0.80,10.96,-0.00,-0.00,-0.03,30.50,27.88,974.31,329.38,27.53,52.76,27.69
842,626807,-2.66,-1.58,21.92,-0.00,0.00,-0.03,30.51,27.88,974.31,329.40,27.54,52.75,27.69
843,627546,-1.32,-0.82,10.96,-0.00,0.00,-0.03,30.52,27.88,974.30,329.41,27.54,52.75,27.69
844,628285,-1.31,-0.81,10.98,-0.00,0.00,-0.03,30.51,27.88,974.31,329.40,27.54,52.75,27.69
845,629024,-1.30,-0.80,10.97,-0.00,0.00,-0.03,30.53,27.88,974.31,329.40,27.53,52.74,27.69
846,629763,-1.33,-0.79,10.93,-0.00,0.00,-0.03,30.52,27.88,974.30,329.43,27.56,52.76,27.69
847,630502,-1.33,-0.80,10.94,-0.00,0.00,-0.03,30.53,27.88,974.31,329.39,27.54,52.74,27.75
848,631241,-1.34,-0.78,10.96,-0.00,0.00,-0.03,30.52,27.88,974.31,329.39,27.57,52.74,27.75
849,631980,-1.35,-0.80,10.95,-0.00,-0.00,-0.03,30.53,27.88,974.31,329.39,27.54,52.74,27.69
850,632719,-1.35,-0.85,10.94,-0.00,0.00,-0.03,30.52,27.88,974.31,329.39,27.54,52.76,27.69
851,633458,-1.38,-0.81,10.99,-0.01,0.00,-0.11,30.53,27.88,974.31,329.40,27.56,52.75,27.69
852,634197,-1.29,-0.78,10.94,0.00,0.00,-0.03,30.53,27.88,974.30,329.43,27.53,52.74,27.69
853,634936,-1.33,-0.75,10.95,-0.00,0.00,-0.03,30.52,27.88,974.30,329.42,27.56,52.76,27.69
854,635675,-1.31,-0.80,10.95,-0.00,-0.00,-0.03,30.54,27.88,974.30,329.42,27.56,52.74,27.69
855,636413,-1.29,-0.81,10.96,-0.00,-0.00,-0.03,30.53,27.89,974.31,329.38,27.56,52.78,27.69
856,637153,-1.32,-0.79,10.98,-0.00,0.00,-0.03,30.54,27.89,974.31,329.40,27.56,52.74,27.69
857,637892,-1.36,-0.83,10.97,-0.00,0.00,-0.03,30.55,27.89,974.30,329.43,27.56,52.73,27.69
858,638631,-1.29,-0.79,10.96,-0.07,-0.07,-0.14,25.98,27.89,974.30,329.43,27.56,52.76,27.69
859,639370,-1.34,-0.80,10.95,-0.00,0.00,-0.03,30.52,27.89,974.30,329.43,27.57,52.74,27.69
860,640109,-1.32,-0.79,10.96,-0.00,0.00,-0.03,30.54,27.89,974.30,329.43,27.59,52.75,27.75
861,640848,-1.33,-0.79,10.96,-0.00,0.00,-0.03,30.55,27.89,974.31,329.41,27.56,52.72,27.69
862,641587,-1.34,-0.79,10.95,-0.00,-0.00,-0.03,30.54,27.89,974.31,329.41,27.59,52.78,27.75
863,642377,-2.64,-1.61,21.91,-0.00,0.00,-0.03,30.53,27.89,974.31,329.41,27.56,52.77,27.69
864,643116,-1.34,-0.80,10.96,-0.00,-0.00,-0.03,30.54,27.89,974.30,329.42,27.59,52.77,27.69
865,643855,-1.35,-0.80,10.95,-0.00,0.00,-0.03,30.54,27.89,974.31,329.40,27.56,52.76,27.69
866,644594,-1.33,-0.79,10.96,-0.00,0.00,-0.00,30.57,27.89,974.30,329.42,27.59,52.76,27.69
867,645333,-1.32,-0.80,10.99,-0.00,0.00,-0.03,30.55,27.89,974.30,329.42,27.57,52.76,27.69
868,646072,-1.33,-0.80,10.98,-0.00,0.00,-0.03,30.55,27.89,974.31,329.40,27.56,52.74,27.69
869,646810,-1.32,-0.80,10.98,-0.00,0.00,-0.03,30.55,27.89,974.30,329.43,27.57,52.77,27.69
870,647549,-1.33,-0.78,10.96,-0.00,0.00,-0.03,30.56,27.89,974.30,329.46,27.59,52.74,27.69
871,648289,-1.33,-0.81,10.97,-0.00,0.00,-0.03,30.55,27.90,974.30,329.44,27.57,52.71,27.69
872,649028,-1.34,-0.79,10.95,-0.00,0.00,-0.03,30.57,27.90,974.30,329.46,27.57,52.76,27.69
873,649767,-1.34,-0.80,10.94,-0.00,0.00,-0.03,30.56,27.90,974.30,329.49,27.59,52.70,27.69
874,650506,-1.33,-0.83,10.96,-0.00,0.00,-0.03,30.56,27.90,974.29,329.52,27.57,52.76,27.69
875,651245,-1.32,-0.79,10.93,-0.00,0.00,-0.03,30.57,27.90,974.29,329.52,27.59,52.75,27.69
876,651984,-1.33,-0.79,10.92,-0.00,0.00,-0.03,30.55,27.90,974.29,329.53,27.59,52.73,27.69
877,652723,-1.33,-0.79,10.98,-0.00,-0.00,-0.03,30.56,27.90,974.29,329.53,27.59,52.76,27.69
878,653462,-1.33,-0.80,10.99,-0.00,-0.00,-0.03,30.56,27.90,974.29,329.53,27.59,52.72,27.75
879,654201,-1.33,-0.80,10.94,-0.00,0.00,-0.03,30.55,27.90,974.29,329.53,27.59,52.72,27.75
880,654940,-1.33,-0.79,10.98,-0.00,0.00,-0.03,30.56,27.90,974.29,329.54,27.60,52.71,27.75
881,655679,-1.33,-0.80,10.92,-0.00,0.00,-0.03,30.55,27.90,974.29,329.53,27.59,52.72,27.75
882,656418,-1.35,-0.81,10.98,-0.00,0.00,-0.03,30.57,27.90,974.29,329.53,27.57,52.74,27.69
883,657157,-1.36,-0.78,10.98,-0.00,0.00,-0.03,30.57,27.90,974.29,329.58,27.59,52.75,27.69
884,657896,-1.34,-0.81,10.96,-0.00,0.00,-0.03,30.56,27.90,974.28,329.59,27.59,52.72,27.69
885,658635,-1.35,-0.80,10.94,-0.01,0.00,-0.11,30.58,27.91,974.28,329.59,27.59,52.76,27.69
886,659374,-1.34,-0.78,10.98,-0.00,0.00,-0.03,30.57,27.91,974.28,329.59,27.60,52.76,27.69
887,660113,-1.35,-0.78,10.97,-0.00,0.00,-0.03,30.56,27.91,974.29,329.57,27.59,52.73,27.69
888,660852,-1.35,-0.80,10.94,-0.00,0.00,-0.03,30.57,27.91,974.29,329.57,27.60,52.74,27.69
889,661591,-1.33,-0.82,10.97,-0.00,0.00,-0.03,30.56,27.91,974.28,329.60,27.60,52.74,27.75
890,662330,-1.31,-0.83,10.96,-0.00,-0.00,-0.03,30.57,27.91,974.28,329.60,27.59,52.74,27.69
891,663069,-1.30,-0.79,10.97,-0.00,0.00,-0.03,30.57,27.91,974.29,329.58,27.60,52.74,27.69
892,663808,-1.35,-0.82,10.96,-0.00,0.00,-0.03,30.57,27.91,974.29,329.58,27.59,52.75,27.69
893,664547,-1.30,-0.81,10.95,-0.00,0.00,-0.03,30.60,27.91,974.29,329.58,27.60,52.70,27.69
894,665286,-1.33,-0.80,10.96,-0.00,0.00,-0.03,30.57,27.91,974.28,329.59,27.59,52.73,27.69
895,666025,-1.32,-0.82,10.95,-0.00,0.00,-0.00,30.56,27.91,974.28,329.63,27.60,52.73,27.75
896,666764,-1.31,-0.78,10.95,-0.00,0.00,-0.03,30.56,27.91,974.28,329.65,27.59,52.75,27.69
897,667503,-1.33,-0.80,10.96,-0.07,-0.07,-0.07,25.98,27.91,974.28,329.63,27.59,52.73,27.75
898,668242,-1.33,-0.81,10.95,-0.00,0.00,-0.03,30.57,27.91,974.28,329.64,27.59,52.71,27.75
899,668981,-1.34,-0.77,10.97,-0.00,0.00,-0.03,30.57,27.91,974.28,329.66,27.60,52.78,27.69
900,669720,-1.34,-0.83,10.96,-0.00,-0.07,-0.07,30.58,27.91,974.27,329.67,27.59,52.70,27.75
901,670458,-1.32,-0.78,10.92,-0.00,0.00,-0.03,30.58,27.91,974.27,329.69,27.60,52.72,27.75
902,671197,-1.32,-0.79,10.97,-0.00,0.00,-0.03,30.57,27.92,974.28,329.65,27.60,52.75,27.69
903,671937,-1.35,-0.80,10.93,-0.00,0.00,-0.03,30.57,27.92,974.28,329.65,27.60,52.70,27.75
904,672676,-1.35,-0.78,10.95,-0.00,0.00,-0.03,30.56,27.92,974.28,329.63,27.60,52.75,27.75
905,673415,-1.34,-0.80,10.98,-0.00,0.00,-0.03,30.57,27.92,974.28,329.63,27.59,52.79,27.75
906,674154,-1.32,-0.81,10.97,-0.00,0.00,-0.03,30.57,27.92,974.28,329.66,27.60,52.70,27.69
907,674893,-1.33,-0.80,10.97,-0.00,0.00,-0.03,30.60,27.92,974.27,329.68,27.60,52.73,27.75
908,675632,-1.30,-0.79,10.96,-0.00,0.00,-0.03,30.58,27.92,974.28,329.64,27.60,52.74,27.69
909,676371,-1.32,-0.78,10.99,-0.00,0.00,-0.03,30.56,27.92,974.28,329.65,27.60,52.73,27.75
910,677110,-1.33,-0.81,10.97,-0.00,0.00,-0.03,30.56,27.92,974.27,329.68,27.60,52.73,27.75
911,677849,-1.32,-0.81,10.94,-0.00,0.00,-0.03,30.56,27.92,974.27,329.68,27.61,52.73,27.69
912,678587,-1.34,-0.81,11.00,-0.00,0.00,-0.03,30.56,27.92,974.27,329.70,27.59,52.71,27.75
913,679327,-1.34,-0.80,10.94,-0.00,-0.00,-0.03,30.57,27.92,974.27,329.70,27.60,52.71,27.75
914,680066,-1.34,-0.78,10.96,-0.00,0.00,-0.03,30.57,27.92,974.27,329.70,27.61,52.69,27.75
915,680805,-1.31,-0.79,10.98,-0.00,-0.00,-0.03,30.59,27.92,974.27,329.71,27.59,52.69,27.75
916,681544,-1.32,-0.79,10.97,-0.00,0.00,-0.03,30.58,27.92,974.27,329.74,27.60,52.73,27.69
917,682283,-1.32,-0.78,10.97,-0.00,0.00,-0.03,30.55,27.92,974.27,329.69,27.63,52.69,27.75
918,683022,-1.32,-0.80,10.95,-0.00,0.00,-0.03,30.57,27.92,974.27,329.71,27.60,52.73,27.75
919,683761,-2.64,-1.55,21.95,-0.00,0.00,-0.03,30.55,27.92,974.27,329.72,27.61,52.71,27.69
920,684500,-1.32,-0.80,10.98,-0.00,-0.00,-0.03,30.57,27.92,974.27,329.72,27.60,52.73,27.75
921,685239,-1.32,-0.81,10.96,-0.00,0.00,-0.03,30.57,27.92,974.27,329.72,27.59,52.75,27.75
922,685978,-1.31,-0.81,10.98,-0.00,0.00,-0.03,30.57,27.93,974.27,329.67,27.60,52.73,27.75
923,686717,-1.31,-0.75,10.96,-0.00,0.00,-0.03,30.57,27.93,974.28,329.66,27.61,52.73,27.69
924,687456,-1.32,-0.78,10.97,-0.00,0.00,-0.03,30.56,27.93,974.28,329.66,27.61,52.72,27.69
925,688195,-1.32,-0.80,10.94,-0.00,0.00,-0.03,30.57,27.93,974.27,329.67,27.60,52.69,27.75
926,688934,-1.34,-0.81,10.96,-0.00,0.00,-0.03,30.55,27.93,974.27,329.67,27.63,52.71,27.75
927,689673,-1.33,-0.81,10.97,-0.00,0.00,-0.03,30.57,27.93,974.27,329.69,27.61,52.73,27.75
928,690412,-1.35,-0.79,10.97,-0.00,0.00,-0.03,30.58,27.93,974.27,329.71,27.63,52.72,27.75
929,691151,-1.34,-0.78,10.97,-0.00,0.00,-0.03,30.58,27.93,974.27,329.73,27.63,52.70,27.75
930,691890,-1.33,-0.81,10.95,-0.00,0.00,-0.03,30.58,27.93,974.27,329.73,27.61,52.70,27.75
931,692629,-1.35,-0.81,10.93,-0.00,0.00,-0.03,30.59,27.93,974.27,329.71,27.61,52.71,27.75
932,693368,-1.32,-0.79,10.94,-0.00,0.00,-0.03,30.58,27.93,974.27,329.74,27.61,52.70,27.81
933,694107,-1.34,-0.83,10.96,-0.00,0.00,-0.03,30.57,27.93,974.27,329.74,27.60,52.72,27.75
934,694846,-1.34,-0.82,10.97,-0.00,0.00,-0.03,30.59,27.93,974.27,329.72,27.63,52.75,27.75
935,695585,-1.33,-0.80,10.98,-0.00,0.00,-0.03,30.58,27.93,974.27,329.72,27.63,52.72,27.75
936,696324,-1.33,-0.80,10.94,-0.00,0.00,-0.03,30.57,27.93,974.27,329.71,27.63,52.71,27.75
937,697063,-1.31,-0.81,10.97,-0.00,-0.00,-0.03,30.57,27.93,974.27,329.71,27.64,52.70,27.75
938,697802,-1.32,-0.79,10.97,-0.00,0.00,-0.03,30.60,27.93,974.27,329.69,27.61,52.72,27.75
939,698541,-1.31,-0.81,10.97,-0.00,0.00,-0.03,30.58,27.93,974.27,329.67,27.63,52.75,27.75
940,699280,-1.32,-0.81,10.95,-0.00,0.00,-0.03,30.57,27.93,974.27,329.70,27.61,52.74,27.75
941,700019,-1.31,-0.80,10.96,-0.00,0.00,-0.03,30.57,27.93,974.27,329.70,27.64,52.72,27.75
942,700758,-1.33,-0.79,10.98,-0.00,0.00,-0.03,30.57,27.94,974.27,329.68,27.61,52.71,27.75
943,701497,-1.35,-1.23,-0.62,-0.07,-0.07,-0.07,35.77,27.94,974.27,329.70,27.63,52.72,27.75
944,702235,-1.33,-0.80,10.95,-0.00,0.00,-0.03,30.57,27.94,974.27,329.70,27.60,52.70,27.75
945,702975,-1.33,-0.79,10.94,-0.00,0.00,-0.03,30.59,27.94,974.28,329.66,27.64,52.68,27.75
946,703714,-1.34,-0.79,10.94,-0.00,0.00,-0.03,30.58,27.94,974.28,329.66,27.63,52.72,27.75
947,704453,-1.33,-0.79,10.95,-0.00,0.00,-0.03,30.58,27.94,974.28,329.66,27.63,52.69,27.75
948,705191,-1.31,-0.81,10.96,-0.00,0.00,-0.03,30.57,27.94,974.27,329.67,27.61,52.73,27.75
949,705931,-1.34,-0.80,10.96,-0.01,0.00,-0.11,30.56,27.94,974.27,329.67,27.63,52.69,27.75
950,706670,-1.33,-0.80,10.96,-0.00,0.00,-0.03,30.57,27.94,974.27,329.70,27.64,52.69,27.75
951,707409,-1.36,-0.80,10.97,-0.00,0.00,-0.03,30.56,27.94,974.27,329.70,27.66,52.70,27.75
952,708197,0.00,22.17,8.27,-0.32,-3.82,0.00,84.81,27.94,974.27,329.68,27.61,52.69,27.75
953,708936,-1.34,-0.83,10.96,-0.00,0.00,-0.03,30.57,27.94,974.27,329.68,27.63,52.72,27.75
954,709675,-1.32,-0.81,10.97,-0.00,0.00,-0.03,30.57,27.94,974.27,329.73,27.61,52.71,27.75
955,710414,-1.35,-0.79,10.95,-0.00,0.00,-0.03,30.58,27.94,974.27,329.74,27.63,52.72,27.75
956,711153,-1.34,-0.81,10.95,-0.00,0.00,-0.00,30.56,27.94,974.27,329.74,27.63,52.70,27.75
957,711892,-1.37,-0.79,10.93,-0.00,0.00,-0.03,30.57,27.94,974.26,329.77,27.64,52.72,27.75
958,712631,-1.36,-0.78,10.92,-0.00,0.00,-0.03,30.57,27.95,974.27,329.74,27.64,52.72,27.75
959,713370,-1.34,-0.78,10.99,-0.00,0.00,-0.03,30.56,27.95,974.27,329.74,27.64,52.69,27.75
960,714109,-1.33,-0.78,10.93,-0.00,0.00,-0.03,30.57,27.95,974.27,329.74,27.63,52.70,27.75
961,714848,-1.32,-0.80,11.00,-0.00,0.00,-0.03,30.58,27.95,974.27,329.75,27.61,52.70,27.75
962,715587,-1.32,-0.79,10.95,-0.00,0.00,-0.03,30.58,27.95,974.26,329.76,27.64,52.71,27.75
963,716326,-1.32,-0.81,10.94,-0.00,0.00,-0.03,30.57,27.95,974.26,329.79,27.64,52.69,27.75
964,717065,-1.36,-0.81,10.96,-0.00,0.00,-0.03,30.57,27.95,974.26,329.78,27.63,52.70,27.75
965,717804,-1.35,-0.80,10.97,-0.00,0.00,-0.03,30.57,27.95,974.27,329.74,27.64,52.65,27.75
966,718543,-1.33,-0.80,10.93,-0.00,0.00,-0.03,30.55,27.95,974.27,329.74,27.63,52.69,27.75
967,719282,-1.35,-0.80,10.99,-0.00,0.00,-0.03,30.56,27.95,974.26,329.77,27.64,52.68,27.75
968,720021,-1.32,-0.79,10.95,-0.00,0.00,-0.03,30.57,27.95,974.26,329.77,27.66,52.69,27.75
969,720760,-1.32,-0.80,10.97,-0.00,0.00,-0.03,30.57,27.95,974.26,329.80,27.63,52.72,27.75
970,721498,-1.35,-0.79,10.94,-0.00,0.00,-0.03,30.57,27.95,974.26,329.77,27.64,52.68,27.75
971,722237,-1.36,-0.81,10.94,-0.00,0.00,-0.03,30.56,27.95,974.26,329.80,27.64,52.69,27.75
972,722977,-1.35,-0.80,10.97,-0.00,0.00,-0.03,30.56,27.95,974.26,329.80,27.64,52.67,27.75
973,723716,-1.34,-0.81,10.95,-0.00,0.00,-0.03,30.58,27.95,974.26,329.83,27.63,52.65,27.75
974,724455,-1.34,-0.81,10.97,-0.00,0.00,-0.03,30.58,27.95,974.25,329.84,27.64,52.69,27.81
975,725193,-1.34,-0.79,10.96,-0.00,0.00,-0.03,30.58,27.95,974.26,329.83,27.67,52.69,27.75
976,725933,-1.32,-0.80,10.96,-0.00,0.00,-0.03,30.57,27.95,974.25,329.85,27.64,52.70,27.75
977,726672,-1.33,-0.81,10.94,-0.00,0.00,-0.03,30.58,27.95,974.25,329.88,27.64,52.67,27.75
978,727411,-1.34,-0.80,10.92,-0.00,-0.00,-0.07,30.57,27.96,974.25,329.86,27.64,52.69,27.75
979,728201,-2.66,-1.62,21.88,-0.00,0.00,-0.03,30.56,27.96,974.25,329.86,27.67,52.67,27.75
980,728940,-1.35,-0.78,10.93,-0.00,0.00,-0.03,30.58,27.96,974.25,329.86,27.64,52.70,27.75
981,729679,-1.35,-0.79,10.97,-0.00,0.00,-0.03,30.55,27.96,974.25,329.87,27.64,52.64,27.75
982,730418,-1.32,-0.81,10.98,-0.00,0.00,-0.03,30.55,27.96,974.25,329.89,27.67,52.70,27.75
983,731157,-1.33,-0.81,10.95,-0.00,0.00,-0.03,30.56,27.96,974.25,329.85,27.66,52.69,27.75
984,731896,-1.32,-0.78,10.96,-0.00,0.00,-0.03,30.54,27.96,974.25,329.86,27.64,52.68,27.75
985,732635,-1.32,-0.79,10.96,-0.00,0.00,-0.03,30.58,27.96,974.25,329.88,27.67,52.71,27.75
986,733374,-1.31,-0.79,10.93,-0.00,0.00,-0.03,30.54,27.96,974.25,329.85,27.66,52.66,27.75
987,734113,-1.36,-0.79,10.96,-0.00,-0.00,-0.03,30.56,27.96,974.25,329.86,27.64,52.67,27.75
988,734852,-1.34,-0.80,10.98,-0.00,0.00,-0.03,30.57,27.96,974.25,329.86,27.66,52.68,27.81
989,735591,-1.35,-0.80,10.99,-0.00,0.00,-0.03,30.56,27.96,974.25,329.87,27.66,52.69,27.75
990,736330,-1.34,-0.82,10.97,-0.00,0.00,-0.03,30.57,27.96,974.25,329.87,27.66,52.67,27.75
991,737068,-1.33,-0.81,10.94,-0.00,0.00,-0.03,30.54,27.96,974.25,329.86,27.63,52.63,27.75
992,737808,-1.33,-0.79,10.97,-0.00,0.00,-0.00,30.56,27.96,974.25,329.87,27.66,52.66,27.75
993,738547,-1.34,-0.78,10.97,-0.00,0.00,-0.03,30.56,27.96,974.25,329.90,27.64,52.72,27.75
994,739286,-1.34,-0.79,10.96,-0.00,0.00,-0.03,30.56,27.96,974.25,329.90,27.64,52.66,27.75
995,740025,-1.34,-0.80,10.96,-0.00,0.00,-0.03,30.56,27.97,974.25,329.88,27.66,52.67,27.75
996,740764,-1.34,-0.82,10.97,-0.00,0.00,-0.03,30.54,27.97,974.25,329.87,27.64,52.70,27.75
997,741552,0.00,22.17,8.27,-0.32,-3.82,0.00,84.81,27.97,974.25,329.87,27.67,52.66,27.75
998,742291,-1.36,-0.81,10.95,-0.00,-0.00,-0.03,30.54,27.97,974.25,329.87,27.66,52.68,27.81
999,743030,-1.33,-0.81,10.97,-0.00,0.00,-0.03,30.55,27.97,974.26,329.83,27.64,52.66,27.81
1000,743769,-1.34,-0.80,10.98,-0.00,-0.00,-0.03,30.55,27.97,974.25,329.85,27.66,52.69,27.75
1001,744507,-1.33,-0.79,10.97,-0.00,0.00,-0.03,30.57,27.97,974.25,329.86,27.64,52.72,27.75
1002,745247,-1.33,-0.80,10.95,-0.00,0.00,-0.03,30.57,27.97,974.25,329.89,27.66,52.69,27.75
1003,745986,-1.34,-0.81,10.96,-0.00,0.00,-0.03,30.55,27.97,974.25,329.89,27.66,52.69,27.81
1004,746725,-1.33,-0.81,10.95,-0.00,0.00,-0.03,30.58,27.97,974.25,329.88,27.67,52.68,27.75
1005,747464,-1.31,-0.80,10.97,-0.00,0.00,-0.03,30.57,27.97,974.25,329.87,27.67,52.68,27.81
1006,748203,-1.34,-0.79,10.94,-0.00,0.00,-0.03,30.56,27.97,974.25,329.88,27.67,52.67,27.81
1007,748942,-1.34,-0.79,10.97,-0.00,0.00,-0.03,30.55,27.97,974.25,329.91,27.67,52.65,27.81
1008,749730,0.00,22.17,8.27,-0.32,-3.82,0.00,84.81,27.97,974.25,329.88,27.67,52.65,27.75
1009,750469,-1.34,-0.81,10.95,-0.00,0.00,-0.03,30.57,27.97,974.25,329.89,27.67,52.68,27.75
1010,751208,-1.35,-0.79,10.94,-0.00,0.00,-0.03,30.56,27.97,974.25,329.89,27.68,52.66,27.81
1011,751947,-1.34,-0.82,10.95,-0.00,0.00,-0.03,30.56,27.98,974.25,329.87,27.68,52.70,27.81
1012,752686,-1.33,-0.80,10.94,-0.00,0.00,-0.03,30.59,27.98,974.25,329.90,27.70,52.66,27.81
1013,753425,-1.34,-0.81,10.96,-0.00,0.00,-0.03,30.58,27.98,974.24,329.93,27.68,52.66,27.81
1014,754164,-1.32,-0.79,10.95,-0.00,-0.07,-0.07,30.58,27.98,974.25,329.91,27.68,52.67,27.81
1015,754903,-1.35,-0.79,10.92,-0.00,0.00,-0.03,30.57,27.98,974.25,329.92,27.70,52.65,27.81
1016,755642,-1.33,-0.80,10.95,-0.00,0.00,-0.03,30.56,27.98,974.25,329.90,27.66,52.68,27.75
1017,756381,-1.35,-0.82,10.97,-0.00,0.00,-0.03,30.58,27.98,974.25,329.92,27.70,52.71,27.81
1018,757120,-1.34,-0.81,10.98,-0.00,0.00,-0.03,30.58,27.98,974.25,329.92,27.68,52.70,27.81
1019,757859,-1.31,-0.80,10.96,-0.00,0.00,-0.03,30.58,27.98,974.25,329.90,27.71,52.69,27.81
1020,758598,-1.33,-0.82,10.95,-0.00,0.00,-0.03,30.58,27.99,974.25,329.89,27.71,52.63,27.75
1021,759337,-1.35,-0.82,10.99,-0.00,0.00,-0.03,30.59,27.99,974.25,329.91,27.68,52.64,27.75
1022,760076,-1.33,-0.80,10.97,-0.00,0.00,-0.03,30.57,27.99,974.25,329.89,27.68,52.65,27.81
1023,760815,-1.34,-0.79,10.96,-0.00,0.00,-0.03,30.59,27.99,974.25,329.90,27.71,52.66,27.81
1024,761554,-1.32,-0.79,10.94,-0.00,-0.00,-0.07,30.59,27.99,974.25,329.88,27.71,52.65,27.81
1025,762293,-1.32,-0.81,10.95,-0.00,0.00,-0.03,30.59,27.99,974.25,329.88,27.67,52.65,27.75
1026,763032,-1.34,-0.82,10.97,-0.00,0.00,-0.03,30.58,27.99,974.25,329.85,27.71,52.70,27.81
1027,763771,-1.34,-0.81,10.94,-0.07,-0.07,-0.07,25.98,27.99,974.25,329.85,27.70,52.67,27.81
1028,764510,-1.34,-0.80,10.94,-0.00,0.00,-0.03,30.59,28.00,974.26,329.83,27.70,52.68,27.81
1029,765298,0.00,22.17,8.27,-0.32,-3.82,0.00,84.81,28.00,974.26,329.81,27.68,52.68,27.81
1030,766037,-1.33,-0.80,10.96,-0.00,0.00,-0.03,30.57,28.00,974.26,329.81,27.70,52.67,27.81
1031,766776,-1.35,-0.81,10.97,-0.00,0.00,-0.03,30.58,28.00,974.26,329.81,27.71,52.65,27.81
1032,767514,-1.35,-0.79,10.88,-0.07,-0.07,-0.07,35.77,28.00,974.26,329.77,27.73,52.67,27.88
1033,768253,-1.34,-0.79,10.95,-0.00,0.00,-0.03,30.57,28.00,974.26,329.75,27.71,52.69,27.81
1034,768993,-1.34,-0.81,10.98,-0.00,-0.00,-0.03,30.58,28.00,974.26,329.77,27.70,52.64,27.81
1035,769732,-1.34,-0.80,10.98,-0.00,0.00,-0.03,30.57,28.01,974.26,329.76,27.68,52.65,27.81
1036,770471,-1.35,-0.82,10.98,-0.00,0.00,-0.03,30.57,28.01,974.26,329.76,27.73,52.67,27.81
1037,771210,-1.32,-0.79,10.94,-0.00,0.00,-0.03,30.57,28.01,974.27,329.73,27.73,52.68,27.81
1038,771949,-1.33,-0.83,10.93,-0.00,0.00,-0.00,30.55,28.01,974.27,329.71,27.73,52.66,27.81
1039,772688,-1.33,-0.80,10.94,-0.00,0.00,-0.03,30.55,28.01,974.27,329.74,27.71,52.68,27.81
1040,773427,-1.33,-0.82,10.97,-0.00,0.00,-0.03,30.55,28.01,974.27,329.70,27.74,52.65,27.81
1041,774166,-1.35,-0.79,10.97,-0.00,0.00,-0.03,30.56,28.01,974.27,329.70,27.74,52.63,27.81
1042,774904,-1.33,-0.80,10.96,-0.00,0.00,-0.03,30.58,28.02,974.27,329.67,27.71,52.66,27.81
1043,775644,-1.32,-0.81,10.95,-0.00,0.00,-0.03,30.56,28.02,974.27,329.68,27.71,52.64,27.88
1044,776383,-1.36,-0.80,10.96,-0.00,0.00,-0.03,30.58,28.02,974.27,329.67,27.73,52.69,27.81
1045,777122,-1.34,-0.79,10.93,-0.00,0.00,-0.03,30.58,28.02,974.28,329.63,27.73,52.66,27.81
1046,777861,-1.32,-0.77,10.93,-0.00,0.00,-0.03,30.55,28.02,974.28,329.63,27.74,52.65,27.81
1047,778600,-1.34,-0.80,10.94,-0.00,0.00,-0.03,30.57,28.02,974.28,329.61,27.73,52.63,27.81
1048,779339,-1.35,-0.81,10.95,-0.00,0.00,-0.03,30.54,28.02,974.28,329.61,27.74,52.61,27.81
1049,780078,-1.34,-0.82,10.97,-0.00,-0.07,-0.07,30.57,28.02,974.29,329.57,27.71,52.62,27.81
1050,780817,-1.33,-0.80,10.95,-0.00,0.00,-0.03,30.57,28.02,974.29,329.58,27.74,52.67,27.88
1051,781556,-1.33,-0.81,10.94,-0.00,0.00,-0.03,30.59,28.02,974.29,329.55,27.74,52.64,27.81
1052,782346,-2.68,-1.58,21.92,-0.00,0.00,-0.03,30.58,28.03,974.29,329.52,27.73,52.66,27.88
1053,783085,-1.35,-0.80,10.96,-0.00,0.00,-0.03,30.57,28.03,974.29,329.53,27.74,52.61,27.81
1054,783824,-1.33,-0.81,10.95,-0.00,0.00,-0.03,30.58,28.03,974.29,329.53,27.73,52.65,27.81
1055,784563,-1.34,-0.80,10.95,-0.00,0.00,-0.03,30.57,28.03,974.29,329.51,27.74,52.63,27.81
1056,785302,-1.33,-0.82,10.92,-0.00,0.00,-0.11,30.57,28.03,974.29,329.51,27.76,52.66,27.81
1057,786040,-1.31,-0.81,10.94,-0.00,0.00,-0.03,30.57,28.03,974.29,329.51,27.76,52.67,27.81
1058,786779,-1.35,-0.80,10.95,-0.00,0.00,-0.03,30.58,28.03,974.29,329.52,27.73,52.63,27.88
1059,787519,-1.33,-0.80,10.99,-0.00,0.00,-0.03,30.57,28.03,974.29,329.55,27.71,52.65,27.81
1060,788257,0.00,22.17,8.27,-0.32,-3.82,0.00,84.81,28.03,974.29,329.53,27.71,52.64,27.81
1061,788996,-1.33,-0.80,10.97,-0.00,-0.00,-0.03,30.59,28.03,974.29,329.56,27.74,52.65,27.88
1062,789735,-1.34,-0.80,10.95,-0.00,0.00,-0.03,30.60,28.03,974.28,329.59,27.74,52.67,27.81
1063,790474,-1.34,-0.81,10.94,-0.00,0.00,-0.03,30.56,28.04,974.28,329.58,27.74,52.67,27.81
1064,791213,-1.34,-0.81,10.96,-0.00,0.00,-0.03,30.58,28.04,974.28,329.60,27.74,52.61,27.88
1065,791952,-1.34,-0.79,10.97,-0.00,0.00,-0.03,30.58,28.04,974.28,329.59,27.76,52.65,27.88
1066,792691,-1.33,-0.80,10.99,-0.00,0.00,-0.03,30.59,28.04,974.28,329.59,27.74,52.63,27.88
1067,793430,-1.36,-0.82,10.95,-0.00,0.00,-0.03,30.58,28.04,974.28,329.59,27.73,52.65,27.88
1068,794169,-1.34,-0.79,10.94,-0.00,0.00,-0.03,30.61,28.04,974.28,329.59,27.74,52.66,27.81
1069,794908,-1.34,-0.80,10.97,-0.00,0.00,-0.03,30.57,28.04,974.29,329.57,27.74,52.58,27.81
1070,795647,-1.35,-0.80,10.93,-0.01,0.00,-0.12,30.58,28.04,974.29,329.58,27.74,52.63,27.81
1071,796386,-1.33,-0.79,10.96,-0.00,0.00,-0.00,30.59,28.05,974.28,329.59,27.77,52.65,27.88
1072,797175,0.00,22.17,8.27,-0.32,-3.82,0.00,84.81,28.05,974.28,329.60,27.76,52.60,27.81
1073,797914,-1.33,-0.78,10.95,-0.00,0.00,-0.03,30.61,28.05,974.28,329.58,27.76,52.63,27.88
1074,798653,-1.32,-0.81,10.97,-0.00,-0.07,-0.07,30.58,28.05,974.28,329.61,27.74,52.65,27.88
1075,799392,-1.34,-0.80,10.94,-0.00,0.00,-0.03,30.59,28.05,974.28,329.61,27.76,52.63,27.81
1076,800131,-1.33,-0.81,10.94,-0.07,-0.07,-0.07,25.98,28.05,974.28,329.62,27.76,52.63,27.88
1077,800870,-1.33,-0.80,10.98,-0.00,0.00,-0.03,30.59,28.05,974.28,329.65,27.76,52.66,27.88
1078,801609,-1.35,-0.79,10.96,-0.00,0.00,-0.03,30.59,28.05,974.28,329.64,27.76,52.66,27.81
1079,802348,-1.32,-0.79,10.95,-0.00,0.00,-0.03,30.59,28.05,974.27,329.69,27.74,52.62,27.88
1080,803087,-1.32,-0.82,10.95,-0.00,0.00,-0.03,30.60,28.05,974.27,329.67,27.76,52.68,27.81
1081,803826,-1.34,-0.80,10.96,-0.00,0.00,-0.03,30.59,28.05,974.28,329.66,27.77,52.62,27.81
1082,804565,-1.34,-0.79,10.96,-0.00,0.00,-0.03,30.61,28.05,974.27,329.69,27.77,52.65,27.81
1083,805304,-1.34,-0.80,10.98,-0.00,0.00,-0.03,30.60,28.05,974.27,329.70,27.76,52.63,27.81
1084,806042,-1.34,-0.80,10.96,-0.00,0.00,-0.00,30.62,28.06,974.27,329.68,27.77,52.64,27.88
1085,806782,-1.33,-0.79,10.95,-0.07,-0.07,-0.14,25.98,28.06,974.27,329.71,27.74,52.65,27.88
1086,807521,-1.33,-0.80,10.97,-0.00,0.00,-0.03,30.60,28.06,974.27,329.72,27.76,52.64,27.88
1087,808260,-1.35,-0.79,10.96,-0.00,0.00,-0.03,30.61,28.06,974.27,329.74,27.76,52.60,27.88
1088,808999,-1.33,-0.79,10.97,-0.00,-0.00,-0.03,30.61,28.06,974.27,329.75,27.74,52.67,27.81
1089,809738,-1.33,-0.79,10.94,-0.00,0.00,-0.03,30.62,28.06,974.26,329.77,27.78,52.66,27.81
1090,810528,-2.70,-1.62,21.92,-0.00,0.00,-0.03,30.60,28.06,974.26,329.77,27.76,52.64,27.81
1091,811267,-2.70,-1.58,21.91,-0.00,0.00,-0.03,30.63,28.06,974.26,329.78,27.77,52.66,27.88
1092,812006,-1.33,-0.79,10.97,-0.00,0.00,-0.03,30.60,28.06,974.26,329.81,27.74,52.62,27.88
1093,812745,-1.34,-0.81,10.98,-0.00,0.00,-0.03,30.59,28.06,974.26,329.82,27.76,52.64,27.88
1094,813484,-1.35,-0.81,10.95,-0.00,0.00,-0.03,30.60,28.06,974.26,329.80,27.77,52.62,27.88
1095,814274,-2.67,-1.60,21.95,-0.00,0.00,-0.03,30.62,28.06,974.26,329.83,27.76,52.62,27.81
1096,815013,-1.33,-0.78,10.95,-0.00,-0.00,-0.03,30.63,28.06,974.25,329.88,27.77,52.61,27.88
1097,815752,-1.34,-0.79,10.96,-0.00,0.00,-0.03,30.61,28.06,974.25,329.89,27.76,52.63,27.81
1098,816491,-1.34,-0.80,10.94,-0.00,0.00,-0.03,30.61,28.06,974.25,329.92,27.76,52.62,27.88
1099,817230,-1.35,-0.80,10.97,-0.00,0.00,-0.03,30.62,28.06,974.24,329.93,27.76,52.68,27.88
1100,817969,-1.32,-0.79,10.92,-0.00,0.00,-0.03,30.60,28.06,974.24,329.96,27.76,52.65,27.88
1101,818759,-2.68,-1.62,21.90,-0.00,0.00,-0.03,30.63,28.06,974.24,329.99,27.76,52.63,27.81
1102,819498,-1.35,-0.81,10.93,-0.00,0.00,-0.03,30.62,28.06,974.23,330.03,27.76,52.65,27.88
1103,820237,-1.33,-0.79,10.96,-0.00,0.00,-0.03,30.62,28.06,974.23,330.01,27.74,52.63,27.88
1104,820976,-1.35,-0.81,10.95,-0.00,0.00,-0.03,30.61,28.06,974.23,330.01,27.74,52.67,27.88
1105,821715,-1.30,-0.78,10.96,-0.00,-0.07,-0.07,30.59,28.06,974.23,330.03,27.76,52.61,27.88
1106,822454,-1.32,-0.79,10.98,-0.01,-0.01,-0.12,30.61,28.06,974.23,330.03,27.76,52.61,27.88
1107,823193,-2.46,-0.62,-0.62,-0.07,-0.07,-0.07,35.77,28.06,974.23,330.06,27.76,52.57,27.88
1108,823932,-1.33,-0.79,10.95,-0.00,0.00,-0.03,30.60,28.07,974.23,330.02,27.78,52.66,27.88
1109,824671,-1.33,-0.78,10.99,-0.00,0.00,-0.03,30.61,28.07,974.23,330.03,27.77,52.67,27.88
1110,825410,-1.32,-0.79,10.98,-0.00,0.00,-0.03,30.63,28.07,974.23,330.05,27.77,52.64,27.81
1111,826149,-1.30,-0.80,10.95,-0.00,0.00,-0.03,30.62,28.07,974.23,330.01,27.78,52.65,27.88
1112,826888,-1.32,-0.79,10.98,-0.00,0.00,-0.03,30.62,28.07,974.23,330.01,27.76,52.61,27.88
1113,827627,-1.32,-0.79,10.95,-0.00,0.00,-0.03,30.60,28.07,974.23,330.03,27.77,52.63,27.88
1114,828366,-1.34,-0.81,10.95,-0.00,0.00,-0.03,30.64,28.07,974.23,330.03,27.77,52.63,27.88
1115,829105,-1.43,-0.83,10.96,-0.00,0.00,-0.03,30.63,28.07,974.23,330.06,27.78,52.62,27.88
1116,829844,-1.36,-0.82,10.96,-0.00,-0.07,-0.07,30.62,28.07,974.23,330.07,27.78,52.58,27.88
1117,830583,-1.33,-0.80,10.96,-0.00,0.00,-0.03,30.61,28.07,974.23,330.07,27.77,52.61,27.88
1118,831322,-1.35,-0.80,10.92,-0.00,0.00,-0.03,30.59,28.07,974.23,330.09,27.76,52.63,27.88
1119,832060,-1.34,-0.82,10.96,-0.00,0.00,-0.03,30.62,28.07,974.23,330.05,27.77,52.64,27.88
1120,832800,-1.32,-0.77,10.95,-0.00,0.00,-0.03,30.62,28.07,974.23,330.08,27.77,52.63,27.88
1121,833539,-1.33,-0.79,10.94,-0.00,0.00,-0.03,30.63,28.07,974.23,330.10,27.76,52.60,27.88
1122,834278,-1.32,-0.78,10.95,-0.07,-0.07,-0.07,25.98,28.07,974.23,330.10,27.77,52.63,27.88
1123,835017,-1.32,-0.79,10.99,-0.00,0.00,-0.03,30.61,28.07,974.22,330.11,27.78,52.62,27.88
1124,835756,-1.33,-0.80,10.97,-0.00,0.00,-0.03,30.62,28.07,974.22,330.11,27.76,52.63,27.88
1125,836495,-1.34,-0.81,10.99,-0.00,0.00,-0.03,30.61,28.07,974.22,330.15,27.78,52.63,27.88
1126,837234,-1.33,-0.82,10.95,-0.00,0.00,-0.03,30.61,28.07,974.22,330.15,27.77,52.61,27.88
1127,837973,-1.34,-0.80,10.94,-0.00,0.00,-0.03,30.59,28.08,974.22,330.13,27.77,52.63,27.88
1128,838712,-1.33,-0.80,10.97,-0.00,0.00,-0.03,30.60,28.08,974.22,330.13,27.77,52.62,27.88
1129,839451,-1.32,-0.79,10.96,-0.00,0.00,-0.03,30.59,28.08,974.22,330.13,27.78,52.59,27.88
1130,840189,-1.34,-0.79,10.96,-0.00,0.00,-0.03,30.58,28.08,974.22,330.13,27.77,52.59,27.88
1131,840929,-1.34,-0.79,10.94,-0.00,0.00,-0.03,30.59,28.08,974.22,330.13,27.76,52.60,27.88
1132,841668,-1.35,-0.80,10.97,-0.00,0.00,-0.03,30.59,28.08,974.22,330.11,27.76,52.61,27.88
1133,842407,-1.32,-0.80,10.96,-0.00,-0.00,-0.03,30.60,28.08,974.23,330.09,27.78,52.60,27.88
1134,843146,-1.33,-0.78,10.95,-0.00,0.00,-0.03,30.61,28.08,974.22,330.11,27.76,52.62,27.88
1135,843885,-1.32,-0.80,10.96,-0.00,0.00,-0.03,30.61,28.08,974.23,330.09,27.78,52.66,27.88
1136,844624,-1.35,-0.80,10.98,-0.00,0.00,-0.03,30.61,28.08,974.23,330.09,27.80,52.58,27.88
1137,845363,-1.34,-0.79,10.97,-0.00,0.00,-0.03,30.59,28.08,974.23,330.09,27.76,52.63,27.88
1138,846102,-1.34,-0.79,10.97,-0.00,0.00,-0.03,30.60,28.08,974.22,330.11,27.77,52.58,27.81
1139,846841,-1.35,-0.79,10.94,-0.00,0.00,-0.03,30.62,28.08,974.22,330.11,27.78,52.63,27.88
1140,847580,-1.32,-0.79,10.94,-0.00,0.00,-0.03,30.60,28.08,974.22,330.11,27.77,52.60,27.81
1141,848319,-1.34,-0.79,10.97,-0.00,0.00,-0.03,30.62,28.08,974.22,330.12,27.76,52.62,27.88
1142,849058,-1.33,-0.81,10.97,-0.00,0.00,-0.03,30.60,28.08,974.22,330.14,27.76,52.60,27.88
1143,849797,-1.33,-0.80,10.96,-0.00,0.00,-0.03,30.59,28.08,974.22,330.12,27.77,52.60,27.88
1144,850536,-1.32,-0.80,10.96,-0.00,0.00,-0.03,30.61,28.08,974.22,330.12,27.76,52.61,27.88
1145,851275,-1.33,-0.81,10.98,-0.00,0.00,-0.03,30.62,28.08,974.22,330.12,27.76,52.60,27.88
1146,852014,-1.32,-0.81,10.94,-0.00,0.00,-0.03,30.60,28.08,974.22,330.13,27.78,52.60,27.88
1147,852753,-1.35,-0.79,10.93,-0.00,0.00,-0.03,30.61,28.08,974.22,330.15,27.78,52.60,27.88
1148,853492,-1.31,-0.81,10.96,-0.00,0.00,-0.03,30.64,28.08,974.22,330.15,27.80,52.63,27.88
1149,854231,-1.33,-0.79,10.97,-0.00,0.00,-0.03,30.62,28.08,974.22,330.16,27.78,52.60,27.88
1150,854969,0.00,22.17,8.27,-0.32,-3.82,0.00,84.81,28.08,974.22,330.18,27.77,52.62,27.88
1151,855758,-1.33,-0.80,10.95,-0.01,0.00,-0.12,30.63,28.09,974.22,330.12,27.78,52.59,27.88
1152,856497,-1.36,-0.80,10.95,-0.00,0.00,-0.03,30.61,28.09,974.22,330.12,27.80,52.60,27.88
1153,857236,-1.34,-0.80,10.95,-0.00,-0.00,-0.03,30.62,28.09,974.22,330.12,27.77,52.58,27.88
1154,857975,-1.34,-0.79,10.95,-0.00,0.00,-0.03,30.64,28.09,974.22,330.15,27.80,52.55,27.88
1155,858714,-1.33,-0.81,10.98,-0.00,0.00,-0.03,30.62,28.09,974.22,330.14,27.78,52.58,27.88
1156,859453,-1.33,-0.79,10.97,-0.00,-0.07,-0.07,30.61,28.09,974.22,330.17,27.77,52.56,27.88
1157,860192,-1.34,-0.82,10.92,-0.00,0.00,-0.03,30.61,28.09,974.22,330.17,27.77,52.54,27.88
1158,860931,-1.33,-0.79,10.97,-0.00,0.00,-0.03,30.63,28.09,974.22,330.16,27.77,52.61,27.88
1159,861670,-1.32,-0.80,10.99,-0.00,0.00,-0.03,30.62,28.09,974.22,330.16,27.78,52.61,27.88
1160,862409,-1.32,-0.80,10.97,-0.00,0.00,-0.03,30.65,28.09,974.21,330.19,27.78,52.60,27.88
1161,863148,-1.33,-0.80,10.92,-0.00,-0.07,-0.07,30.62,28.09,974.21,330.19,27.78,52.59,27.88
1162,863887,-1.33,-0.81,10.97,-0.00,-0.00,-0.03,30.61,28.09,974.21,330.21,27.80,52.58,27.88
1163,864626,-1.35,-0.79,10.97,-0.00,0.00,-0.03,30.62,28.09,974.21,330.19,27.80,52.58,27.88
1164,865365,-1.36,-0.80,10.98,-0.00,0.00,-0.03,30.61,28.09,974.22,330.16,27.77,52.59,27.88
1165,866104,-1.32,-0.80,10.93,-0.00,-0.07,-0.14,30.63,28.09,974.22,330.17,27.80,52.60,27.88
1166,866892,0.00,22.17,8.27,-0.32,-3.82,0.00,84.81,28.09,974.22,330.17,27.80,52.61,27.88
1167,867631,-1.34,-0.82,10.93,-0.00,0.00,-0.03,30.62,28.09,974.22,330.14,27.80,52.62,27.88
1168,868370,-1.35,-0.79,10.96,-0.00,0.00,-0.03,30.63,28.09,974.22,330.14,27.81,52.62,27.88
1169,869109,-1.34,-0.80,10.97,-0.00,0.00,-0.03,30.62,28.10,974.22,330.14,27.78,52.57,27.88
1170,869848,-1.34,-1.23,-0.62,-0.07,-0.07,-0.07,35.77,28.10,974.22,330.13,27.80,52.61,27.94
1171,870586,-1.33,-0.81,10.98,-0.00,0.00,-0.03,30.64,28.10,974.22,330.14,27.81,52.60,27.88
1172,871326,-1.34,-0.82,10.96,-0.00,0.00,-0.03,30.64,28.10,974.22,330.16,27.83,52.59,27.88
1173,872065,-1.34,-0.81,10.94,-0.00,0.00,-0.03,30.64,28.10,974.22,330.15,27.80,52.59,27.88
1174,872804,-1.34,-0.79,10.94,-0.00,0.00,-0.03,30.64,28.10,974.21,330.20,27.81,52.59,27.88
1175,873543,-1.33,-0.81,10.96,-0.00,0.00,-0.03,30.63,28.10,974.22,330.17,27.80,52.60,27.88
1176,874282,-1.33,-0.80,10.98,-0.00,-0.00,-0.03,30.63,28.10,974.21,330.20,27.81,52.59,27.88
1177,875021,-1.33,-0.81,10.95,-0.00,0.00,-0.03,30.64,28.11,974.22,330.17,27.83,52.60,27.88
1178,875760,-1.33,-0.80,10.95,-0.00,0.00,-0.03,30.63,28.11,974.22,330.18,27.81,52.56,27.88
1179,876499,-1.32,-0.81,10.95,-0.00,0.00,-0.03,30.62,28.11,974.21,330.20,27.80,52.60,27.88
1180,877238,-1.33,-0.80,10.96,-0.00,-0.00,-0.03,30.62,28.11,974.22,330.18,27.81,52.60,27.88
1181,877977,-1.34,-0.81,10.97,-0.00,0.00,-0.03,30.64,28.11,974.21,330.19,27.81,52.61,27.88
1182,878716,-1.33,-0.80,10.94,-0.00,0.00,-0.03,30.64,28.11,974.22,330.17,27.81,52.60,27.88
1183,879455,-1.33,-0.80,10.95,-0.00,0.00,-0.03,30.63,28.11,974.22,330.17,27.78,52.58,27.88
1184,880194,-1.34,-0.80,10.96,-0.00,0.00,-0.03,30.66,28.11,974.22,330.14,27.78,52.55,27.88
1185,880933,-1.33,-0.81,10.98,-0.01,0.00,-0.12,30.64,28.11,974.22,330.15,27.81,52.60,27.88
1186,881672,-1.32,-0.78,10.99,-0.00,0.00,-0.03,30.65,28.11,974.22,330.15,27.81,52.61,27.88
1187,882411,-1.33,-0.81,10.93,-0.00,0.00,-0.03,30.65,28.12,974.22,330.13,27.81,52.60,27.88
1188,883150,-1.34,-0.80,10.96,-0.00,0.00,-0.03,30.66,28.12,974.22,330.15,27.80,52.59,27.88
1189,883889,-1.34,-0.81,10.98,-0.00,0.00,-0.03,30.64,28.12,974.22,330.13,27.81,52.57,27.88
1190,884628,-1.36,-0.79,10.96,-0.00,0.00,-0.03,30.67,28.12,974.22,330.13,27.80,52.58,27.88
1191,885367,-1.34,-0.79,10.96,-0.00,0.00,-0.03,30.64,28.12,974.22,330.14,27.81,52.61,27.94
1192,886106,-1.35,-0.80,10.94,-0.00,0.00,-0.03,30.65,28.12,974.22,330.16,27.81,52.60,27.88
1193,886845,-1.33,-0.80,10.96,-0.00,0.00,-0.03,30.65,28.12,974.22,330.17,27.83,52.58,27.88
1194,887584,-1.33,-0.80,10.95,-0.00,-0.07,-0.07,30.65,28.12,974.21,330.19,27.81,52.57,27.88
1195,888323,-1.33,-0.79,10.95,-0.00,0.00,-0.03,30.64,28.12,974.22,330.14,27.81,52.58,27.94
1196,889062,-1.33,-0.79,10.94,-0.00,0.00,-0.03,30.65,28.12,974.22,330.17,27.81,52.58,27.88
1197,889801,-1.34,-0.82,10.94,-0.00,0.00,-0.03,30.66,28.12,974.22,330.15,27.83,52.56,27.88
1198,890540,-1.33,-0.80,10.97,-0.00,0.00,-0.03,30.66,28.12,974.22,330.15,27.80,52.55,27.88
1199,891279,-1.32,-0.77,10.95,-0.00,0.00,-0.03,30.66,28.12,974.22,330.15,27.81,52.57,27.94
1200,892018,-1.34,-0.81,10.95,-0.00,0.00,-0.03,30.66,28.12,974.22,330.14,27.80,52.59,27.88
1201,892757,-1.36,-0.80,10.93,-0.00,0.00,-0.03,30.66,28.12,974.22,330.10,27.83,52.60,27.88
1202,893496,-2.67,-1.54,21.92,-0.00,0.00,-0.03,30.67,28.12,974.22,330.12,27.81,52.61,27.94
1203,894235,-1.35,-0.81,10.97,-0.07,-0.07,-0.07,25.98,28.12,974.22,330.12,27.83,52.59,27.88
1204,894974,-1.32,-0.79,10.98,-0.00,0.00,-0.03,30.65,28.12,974.22,330.12,27.84,52.58,27.94
1205,895713,-1.34,-0.79,10.98,-0.00,0.00,-0.03,30.67,28.12,974.22,330.13,27.83,52.60,27.88
1206,896452,-1.35,-0.80,10.96,-0.00,0.00,-0.03,30.67,28.12,974.22,330.13,27.83,52.61,27.88
1207,897191,-1.34,-0.81,10.97,-0.07,-0.07,-0.07,25.98,28.12,974.22,330.15,27.83,52.59,27.88
1208,897930,-1.34,-0.80,10.96,-0.00,0.00,-0.00,30.66,28.12,974.22,330.16,27.84,52.57,27.88
1209,898669,-1.35,-0.79,10.95,-0.00,0.00,-0.03,30.66,28.12,974.21,330.20,27.81,52.60,27.94
1210,899408,-1.33,-0.80,10.96,-0.00,0.00,-0.03,30.65,28.12,974.21,330.22,27.83,52.55,27.88
1211,900147,-1.34,-0.80,10.97,-0.00,0.00,-0.03,30.67,28.12,974.21,330.22,27.83,52.54,27.94
1212,900886,-1.32,-0.81,10.95,-0.00,0.00,-0.03,30.66,28.12,974.21,330.25,27.81,52.61,27.88
1213,901625,-1.34,-0.80,10.96,-0.00,0.00,-0.03,30.65,28.12,974.21,330.22,27.83,52.60,27.88
1214,902364,-1.33,-0.81,10.95,-0.00,-0.00,-0.03,30.65,28.12,974.21,330.20,27.80,52.58,27.88
1215,903103,-1.34,-0.75,10.98,-0.00,0.00,-0.03,30.67,28.12,974.21,330.20,27.81,52.60,27.88
1216,903842,-1.33,-0.81,10.96,-0.00,0.00,-0.03,30.67,28.12,974.21,330.22,27.80,52.57,27.88
1217,904581,-1.34,-0.79,10.97,-0.00,0.00,-0.03,30.66,28.12,974.21,330.22,27.84,52.58,27.88
1218,905320,-1.34,-0.81,10.97,-0.00,-0.07,-0.07,30.67,28.12,974.21,330.22,27.83,52.55,27.88
1219,906059,-1.33,-0.82,10.95,-0.00,0.00,-0.03,30.67,28.12,974.21,330.20,27.83,52.58,27.88
1220,906798,-1.34,-0.82,10.95,-0.00,0.00,-0.03,30.66,28.12,974.21,330.22,27.85,52.58,27.94
1221,907537,-1.35,-0.83,10.95,-0.00,0.00,-0.03,30.68,28.12,974.21,330.20,27.83,52.61,27.88
1222,908276,-1.34,-0.80,10.96,-0.00,0.00,-0.00,30.69,28.12,974.21,330.19,27.81,52.57,27.94
1223,909015,-1.36,-0.83,10.98,-0.00,0.00,-0.03,30.68,28.12,974.21,330.19,27.83,52.57,27.94
1224,909754,-1.34,-0.79,10.96,-0.00,0.00,-0.03,30.70,28.12,974.21,330.19,27.83,52.57,27.88
1225,910492,-1.35,-0.80,10.98,-0.00,-0.07,-0.14,30.68,28.12,974.22,330.17,27.83,52.56,27.88
1226,911232,-1.33,-0.81,10.96,-0.00,0.00,-0.03,30.70,28.12,974.22,330.16,27.84,52.55,27.94
1227,911971,-1.34,-0.79,10.94,-0.00,0.00,-0.03,30.69,28.12,974.22,330.16,27.85,52.58,27.88
1228,912710,-1.33,-0.81,10.97,-0.00,0.00,-0.03,30.69,28.12,974.22,330.17,27.83,52.58,27.88
1229,913449,-1.33,-0.81,10.96,-0.00,0.00,-0.03,30.67,28.12,974.22,330.17,27.83,52.61,27.88
1230,914188,-1.34,-0.79,10.93,-0.00,0.00,-0.03,30.69,28.12,974.22,330.17,27.83,52.58,27.94
1231,914927,-1.32,-0.77,10.97,-0.00,0.00,-0.03,30.68,28.12,974.22,330.15,27.83,52.54,27.94
1232,915666,-1.31,-0.81,10.98,-0.00,0.00,-0.03,30.67,28.12,974.22,330.13,27.84,52.57,27.94
1233,916405,-1.34,-0.82,10.96,-0.00,0.00,-0.03,30.68,28.13,974.22,330.10,27.84,52.58,27.88
1234,917144,-1.36,-0.80,10.96,-0.00,0.00,-0.03,30.67,28.13,974.22,330.10,27.84,52.52,27.94
1235,917883,-1.34,-0.80,10.98,-0.00,0.00,-0.03,30.69,28.13,974.23,330.08,27.83,52.54,27.88
1236,918622,-1.32,-0.80,10.97,-0.00,0.00,-0.03,30.64,28.13,974.23,330.08,27.83,52.55,27.94
1237,919361,-1.34,-0.82,10.93,-0.00,0.00,-0.03,30.68,28.13,974.23,330.06,27.84,52.53,27.94
1238,920100,-1.35,-0.80,10.97,-0.00,0.00,-0.03,30.69,28.13,974.23,330.08,27.84,52.57,27.94
1239,920839,-1.34,-0.79,10.95,-0.07,-0.07,-0.07,25.98,28.13,974.23,330.08,27.84,52.60,27.94
1240,921578,-1.34,-0.81,10.96,-0.00,0.00,-0.03,30.68,28.13,974.23,330.09,27.84,52.56,27.94
1241,922317,-1.33,-0.78,10.95,-0.00,0.00,-0.03,30.68,28.13,974.23,330.09,27.84,52.52,27.94
1242,923056,-1.34,-0.77,10.97,-0.00,0.00,-0.03,30.69,28.13,974.22,330.11,27.85,52.51,27.94
1243,923795,-1.35,-0.78,10.95,-0.00,0.00,-0.00,30.69,28.13,974.22,330.14,27.84,52.59,27.94
1244,924534,-1.33,-0.80,10.93,-0.00,0.00,-0.00,30.70,28.13,974.22,330.12,27.87,52.56,27.94
1245,925273,-1.33,-0.81,10.92,-0.00,0.00,-0.03,30.69,28.13,974.23,330.06,27.84,52.54,27.94
1246,926012,-1.33,-0.79,10.94,-0.00,0.00,-0.03,30.71,28.13,974.23,330.06,27.85,52.54,27.94
1247,926751,-1.34,-0.80,10.96,-0.00,0.00,-0.03,30.69,28.13,974.23,330.06,27.85,52.58,27.94
1248,927490,-1.32,-0.82,10.95,-0.00,0.00,-0.03,30.71,28.13,974.23,330.06,27.85,52.57,27.94
1249,928229,-1.33,-0.82,10.95,-0.00,0.00,-0.03,30.68,28.13,974.23,330.02,27.87,52.56,27.94
1250,928968,-1.32,-0.81,10.95,-0.00,0.00,-0.03,30.69,28.13,974.23,330.02,27.84,52.59,27.94
1251,929707,-1.31,-0.80,10.98,-0.07,-0.07,-0.14,25.98,28.13,974.23,330.04,27.85,52.58,27.94
1252,930446,-1.33,-0.81,10.96,-0.00,-0.07,-0.07,30.69,28.13,974.23,330.04,27.84,52.55,27.94
1253,931185,-1.33,-0.79,10.95,-0.00,0.00,-0.03,30.69,28.13,974.23,330.07,27.85,52.54,27.94
1254,931924,-1.35,-0.81,10.95,-0.00,0.00,-0.03,30.69,28.13,974.23,330.07,27.87,52.55,27.94
1255,932663,-1.34,-0.81,10.95,-0.00,0.00,-0.03,30.69,28.13,974.23,330.05,27.85,52.55,27.94
1256,933402,-1.32,-0.80,10.97,-0.00,0.00,-0.03,30.68,28.13,974.23,330.04,27.84,52.54,27.94
1257,934140,-1.35,-0.80,11.00,-0.00,0.00,-0.03,30.69,28.13,974.23,330.04,27.87,52.54,27.94
1258,934880,-1.35,-0.80,10.94,-0.00,0.00,-0.03,30.69,28.14,974.23,330.02,27.85,52.56,27.94
1259,935619,-1.33,-0.80,10.97,-0.00,0.00,-0.03,30.69,28.14,974.23,330.03,27.85,52.54,27.94
1260,936358,-1.32,-0.81,10.93,-0.00,0.00,-0.03,30.67,28.14,974.23,330.05,27.85,52.52,27.94
1261,937097,-1.34,-0.81,10.97,-0.01,0.00,-0.11,30.68,28.14,974.23,330.03,27.87,52.56,27.94
1262,937836,-1.33,-0.81,10.98,-0.00,0.00,-0.03,30.69,28.14,974.23,330.05,27.87,52.57,27.94
1263,938575,-1.33,-0.80,10.98,-0.00,0.00,-0.03,30.70,28.14,974.23,330.06,27.88,52.54,27.94
1264,939314,-1.32,-0.80,10.93,-0.00,0.00,-0.03,30.71,28.14,974.23,330.06,27.87,52.54,27.94
1265,940102,0.00,22.17,8.27,-0.32,-3.82,0.00,84.81,28.14,974.23,330.06,27.85,52.55,27.94
1266,940841,-1.33,-0.80,10.94,-0.00,0.00,-0.03,30.70,28.14,974.23,330.06,27.87,52.56,28.00
1267,941580,-1.34,-0.79,10.93,-0.00,0.00,-0.03,30.69,28.14,974.23,330.07,27.85,52.56,27.94
1268,942319,-1.35,-0.80,10.95,-0.00,0.00,-0.03,30.71,28.14,974.22,330.10,27.85,52.51,27.94
1269,943058,-1.34,-0.80,10.94,-0.00,0.00,-0.03,30.69,28.14,974.22,330.10,27.87,52.54,27.94
1270,943797,-1.34,-0.80,10.95,-0.00,0.00,-0.03,30.71,28.14,974.22,330.13,27.87,52.56,27.94
1271,944536,-1.34,-0.79,10.96,-0.00,0.00,-0.03,30.72,28.14,974.22,330.16,27.85,52.58,27.94
1272,945275,-1.35,-0.80,10.98,-0.00,0.00,-0.03,30.72,28.14,974.22,330.14,27.85,52.56,27.94
1273,946014,-1.33,-0.78,10.94,-0.00,0.00,-0.03,30.70,28.14,974.22,330.14,27.88,52.55,27.94
1274,946753,-1.33,-0.81,10.96,-0.00,0.00,-0.03,30.69,28.14,974.22,330.18,27.87,52.52,27.94
1275,947492,-1.34,-0.80,10.98,-0.00,0.00,-0.03,30.71,28.14,974.21,330.21,27.87,52.53,27.94
1276,948231,-1.33,-0.80,10.95,-0.00,0.00,-0.03,30.70,28.14,974.21,330.22,27.85,52.56,27.94
1277,948970,-1.32,-0.81,10.93,-0.00,0.00,-0.03,30.71,28.14,974.21,330.24,27.84,52.54,27.94
1278,949709,-1.34,-0.80,10.93,-0.00,0.00,-0.03,30.70,28.14,974.21,330.20,27.87,52.54,27.94
1279,950448,-1.32,-0.80,10.96,-0.00,0.00,-0.03,30.71,28.14,974.21,330.22,27.85,52.54,27.94
1280,951187,-1.33,-0.81,10.95,-0.00,0.00,-0.03,30.72,28.14,974.21,330.25,27.87,52.53,27.94
1281,951926,-1.34,-0.80,10.92,-0.00,0.00,-0.03,30.72,28.14,974.21,330.25,27.83,52.55,27.94
1282,952665,-1.34,-0.81,10.94,-0.00,0.00,-0.03,30.72,28.14,974.20,330.27,27.85,52.52,27.94
1283,953404,-1.32,-0.79,10.95,-0.00,0.00,-0.03,30.69,28.15,974.21,330.24,27.84,52.52,27.94
1284,954143,-2.65,-1.59,21.91,-0.00,0.00,-0.03,30.69,28.15,974.21,330.23,27.87,52.54,27.94
1285,954882,-1.33,-0.80,10.98,-0.00,0.00,-0.03,30.70,28.15,974.21,330.23,27.83,52.52,27.94
1286,955621,-1.34,-0.82,10.97,-0.00,0.00,-0.03,30.69,28.15,974.21,330.23,27.85,52.52,27.94
1287,956360,-1.35,-0.80,10.98,-0.00,0.00,-0.03,30.69,28.15,974.21,330.21,27.83,52.54,27.94
1288,957099,-1.33,-0.81,10.94,-0.00,0.00,-0.03,30.69,28.15,974.21,330.20,27.85,52.54,27.88
1289,957838,-1.33,-0.80,10.99,-0.00,0.00,-0.03,30.69,28.15,974.21,330.21,27.84,52.51,27.94
1290,958577,-1.36,-0.80,10.96,-0.00,0.00,-0.03,30.69,28.14,974.21,330.23,27.81,52.55,27.88
1291,959316,-1.33,-0.82,10.97,-0.00,0.00,-0.03,30.70,28.14,974.21,330.23,27.84,52.50,27.94
1292,960055,-1.33,-0.79,10.96,-0.07,-0.07,-0.07,30.69,28.14,974.21,330.22,27.81,52.54,27.94
1293,960794,-1.34,-0.81,10.89,-0.07,-0.07,-0.07,35.77,28.14,974.21,330.22,27.84,52.56,27.94
1294,961582,0.00,22.17,8.27,-0.32,-3.82,0.00,84.81,28.14,974.21,330.19,27.83,52.57,27.94
1295,962321,-1.33,-0.81,10.98,-0.00,0.00,-0.03,30.66,28.14,974.21,330.19,27.83,52.52,27.88
1296,963060,-1.33,-0.77,10.95,-0.00,0.00,-0.03,30.68,28.14,974.21,330.21,27.83,52.51,27.88
1297,963799,-1.32,-0.79,10.98,-0.00,0.00,-0.03,30.69,28.14,974.21,330.19,27.83,52.51,27.88
1298,964538,-1.34,-0.80,10.96,-0.00,0.00,-0.03,30.70,28.14,974.21,330.22,27.80,52.51,27.88
1299,965277,-1.35,-0.79,10.95,-0.00,0.00,-0.03,30.69,28.14,974.21,330.22,27.81,52.51,27.88
1300,966016,-1.34,-0.81,10.96,-0.00,0.00,-0.03,30.71,28.14,974.21,330.19,27.78,52.52,27.88
1301,966755,-1.33,-0.82,10.97,-0.00,0.00,-0.03,30.67,28.14,974.21,330.21,27.81,52.52,27.88
1302,967494,-1.33,-0.79,10.96,-0.00,0.00,-0.03,30.70,28.14,974.22,330.18,27.83,52.51,27.88
1303,968233,-2.46,-0.62,-0.62,-0.07,-0.07,-0.07,35.77,28.14,974.22,330.16,27.83,52.54,27.88
1304,968972,-1.34,-0.80,10.96,-0.00,0.00,-0.03,30.69,28.13,974.22,330.17,27.80,52.52,27.88
1305,969711,-1.33,-0.79,10.91,-0.00,-0.00,-0.03,30.68,28.13,974.22,330.15,27.81,52.54,27.88
1306,970450,-1.33,-0.81,10.97,-0.00,0.00,-0.03,30.69,28.13,974.22,330.14,27.83,52.54,27.88
1307,971189,-1.35,-0.81,10.93,-0.00,0.00,-0.03,30.68,28.13,974.22,330.15,27.81,52.53,27.88
1308,971928,-1.36,-0.80,10.97,-0.00,0.00,-0.03,30.68,28.13,974.22,330.15,27.84,52.53,27.94
1309,972667,-1.33,-0.82,10.94,-0.00,0.00,-0.00,30.69,28.13,974.22,330.13,27.81,52.53,27.88
1310,973405,-1.32,-0.81,10.95,-0.00,0.00,-0.03,30.68,28.13,974.22,330.10,27.83,52.53,27.94
1311,974145,-1.33,-0.81,10.93,-0.00,0.00,-0.03,30.67,28.13,974.22,330.12,27.81,52.52,27.94
1312,974884,-1.34,-0.79,10.94,-0.07,-0.07,-0.07,25.98,28.13,974.22,330.15,27.81,52.58,27.94
1313,975623,-1.34,-0.80,10.94,-0.00,0.00,-0.03,30.71,28.13,974.22,330.15,27.84,52.53,27.94
1314,976362,-1.35,-0.79,10.95,-0.00,0.00,-0.03,30.69,28.13,974.22,330.15,27.83,52.51,27.94
1315,977101,-1.33,-0.80,10.93,-0.00,0.00,-0.03,30.70,28.13,974.21,330.20,27.81,52.51,27.94
1316,977840,-1.32,-0.81,10.98,-0.00,0.00,-0.03,30.69,28.13,974.21,330.20,27.81,52.54,27.88
1317,978579,-1.33,-0.79,10.96,-0.00,0.00,-0.03,30.67,28.13,974.21,330.18,27.81,52.52,27.88
1318,979318,-1.33,-0.80,10.97,-0.00,0.00,-0.03,30.69,28.12,974.21,330.20,27.83,52.54,27.88
1319,980057,-2.69,-1.61,-1.24,-0.07,-0.07,-0.07,35.77,28.12,974.21,330.19,27.81,52.51,27.88
1320,980846,0.00,22.17,8.27,-0.32,-3.82,0.00,84.81,28.12,974.22,330.17,27.80,52.48,27.94
1321,981585,-1.33,-0.80,10.96,-0.00,0.00,-0.03,30.67,28.12,974.22,330.17,27.78,52.53,27.88
1322,982324,-1.33,-0.79,10.97,-0.00,-0.00,-0.00,30.69,28.12,974.21,330.19,27.80,52.54,27.94
1323,983063,-1.34,-0.78,10.94,-0.00,0.00,-0.03,30.67,28.12,974.21,330.19,27.78,52.49,27.88
1324,983851,0.00,22.17,8.27,-0.32,-3.82,0.00,84.81,28.12,974.21,330.19,27.81,52.49,27.94
1325,984590,-1.34,-0.79,10.94,-0.00,0.00,-0.03,30.67,28.12,974.21,330.21,27.80,52.53,27.88
1326,985329,-1.33,-0.79,10.94,-0.00,0.00,-0.03,30.63,28.12,974.21,330.20,27.81,52.53,27.88
1327,986068,-1.33,-0.80,10.96,-0.00,0.00,-0.03,30.67,28.12,974.21,330.21,27.77,52.53,27.88
1328,986807,-1.35,-0.82,10.93,-0.00,0.00,-0.03,30.67,28.12,974.21,330.19,27.80,52.54,27.88
1329,987546,-1.32,-0.79,10.98,-0.00,0.00,-0.03,30.65,28.11,974.21,330.21,27.80,52.49,27.88
